Multi_33%Li2TiO3_33%
Wavelength = 1.54059 Ã… (Cu)
Angle	I(o)	I(b)
10.0	1882.0	1833.5
10.01	1829.0	1834.9
10.02	1760.0	1836.2
10.03	1838.0	1837.6
10.04	1895.0	1838.9
10.05	1939.0	1840.3
10.06	1941.0	1841.6
10.07	1944.0	1843.0
10.08	1905.0	1844.3
10.09	1893.0	1845.6
10.1	1838.0	1847.0
10.11	1891.0	1848.3
10.12	1832.0	1849.7
10.13	1840.0	1851.0
10.14	1821.0	1852.3
10.15	1880.0	1853.7
10.16	1929.0	1855.0
10.17	1855.0	1856.4
10.18	1807.0	1857.7
10.19	1870.0	1859.0
10.2	1961.0	1860.4
10.21	1938.0	1861.7
10.22	1865.0	1863.0
10.23	1893.0	1864.3
10.24	1922.0	1865.7
10.25	1936.0	1867.0
10.26	1898.0	1868.3
10.27	1903.0	1869.7
10.28	1939.0	1871.0
10.29	1917.0	1872.3
10.3	1846.0	1873.6
10.31	1864.0	1874.9
10.32	1863.0	1876.3
10.33	1856.0	1877.6
10.34	1935.0	1878.9
10.35	1881.0	1880.2
10.36	1895.0	1881.5
10.37	1926.0	1882.8
10.38	1920.0	1884.1
10.39	1901.0	1885.4
10.4	1872.0	1886.7
10.41	1920.0	1888.0
10.42	1926.0	1889.3
10.43	1947.0	1890.6
10.44	1955.0	1891.9
10.45	1961.0	1893.2
10.46	1950.0	1894.5
10.47	1985.0	1895.8
10.48	1948.0	1897.0
10.49	1937.0	1898.3
10.5	1946.0	1899.6
10.51	1909.0	1900.9
10.52	1832.0	1902.1
10.53	1864.0	1903.4
10.54	1907.0	1904.7
10.55	1917.0	1905.9
10.56	1918.0	1907.2
10.57	1877.0	1908.4
10.58	1869.0	1909.7
10.59	1873.0	1910.9
10.6	1948.0	1912.2
10.61	1972.0	1913.4
10.62	1959.0	1914.7
10.63	1893.0	1915.9
10.64	1930.0	1917.1
10.65	1946.0	1918.4
10.66	1873.0	1919.6
10.67	1884.0	1920.8
10.68	1943.0	1922.0
10.69	1930.0	1923.2
10.7	1989.0	1924.4
10.71	1922.0	1925.6
10.72	1907.0	1926.8
10.73	1884.0	1928.0
10.74	1960.0	1929.2
10.75	1981.0	1930.4
10.76	1971.0	1931.6
10.77	1954.0	1932.8
10.78	1939.0	1934.0
10.79	1913.0	1935.1
10.8	1913.0	1936.3
10.81	1959.0	1937.5
10.82	2017.0	1938.6
10.83	1970.0	1939.8
10.84	1956.0	1940.9
10.85	1961.0	1942.1
10.86	1995.0	1943.2
10.87	2024.0	1944.3
10.88	2008.0	1945.5
10.89	1968.0	1946.6
10.9	1920.0	1947.7
10.91	1905.0	1948.8
10.92	1956.0	1949.9
10.93	1943.0	1951.0
10.94	1935.0	1952.1
10.95	1885.0	1953.2
10.96	1956.0	1954.3
10.97	1982.0	1955.4
10.98	1989.0	1956.5
10.99	1967.0	1957.6
11.0	2016.0	1958.6
11.01	1972.0	1959.7
11.02	1941.0	1960.7
11.03	1956.0	1961.8
11.04	1955.0	1962.8
11.05	1986.0	1963.9
11.06	2022.0	1964.9
11.07	2018.0	1965.9
11.08	1950.0	1967.0
11.09	1969.0	1968.0
11.1	1949.0	1969.0
11.11	1953.0	1970.0
11.12	2001.0	1971.0
11.13	1985.0	1972.0
11.14	1989.0	1973.0
11.15	1962.0	1974.0
11.16	1969.0	1974.9
11.17	1975.0	1975.9
11.18	1941.0	1976.9
11.19	1957.0	1977.8
11.2	2030.0	1978.8
11.21	1994.0	1979.7
11.22	2004.0	1980.7
11.23	2048.0	1981.6
11.24	1994.0	1982.6
11.25	1967.0	1983.5
11.26	2001.0	1984.4
11.27	2002.0	1985.3
11.28	2031.0	1986.2
11.29	2009.0	1987.2
11.3	2004.0	1988.1
11.31	2002.0	1989.0
11.32	1980.0	1989.9
11.33	1941.0	1990.7
11.34	1981.0	1991.6
11.35	1996.0	1992.5
11.36	2042.0	1993.4
11.37	2034.0	1994.3
11.38	1958.0	1995.1
11.39	1941.0	1996.0
11.4	1997.0	1996.8
11.41	2053.0	1997.7
11.42	2008.0	1998.5
11.43	2031.0	1999.4
11.44	2028.0	2000.2
11.45	2006.0	2001.0
11.46	1992.0	2001.9
11.47	1963.0	2002.7
11.48	2016.0	2003.5
11.49	2077.0	2004.3
11.5	2024.0	2005.1
11.51	1945.0	2005.9
11.52	1946.0	2006.7
11.53	2007.0	2007.5
11.54	2028.0	2008.3
11.55	2001.0	2009.1
11.56	2018.0	2009.9
11.57	2058.0	2010.7
11.58	2075.0	2011.4
11.59	2047.0	2012.2
11.6	1979.0	2013.0
11.61	2050.0	2013.7
11.62	1976.0	2014.5
11.63	2073.0	2015.2
11.64	2045.0	2016.0
11.65	2033.0	2016.7
11.66	2055.0	2017.5
11.67	2039.0	2018.2
11.68	1955.0	2018.9
11.69	1995.0	2019.7
11.7	2074.0	2020.4
11.71	2085.0	2021.1
11.72	2037.0	2021.8
11.73	2051.0	2022.5
11.74	2086.0	2023.2
11.75	2055.0	2023.9
11.76	2073.0	2024.6
11.77	2019.0	2025.3
11.78	2037.0	2026.0
11.79	2006.0	2026.7
11.8	1983.0	2027.4
11.81	1973.0	2028.1
11.82	2047.0	2028.7
11.83	2075.0	2029.4
11.84	2097.0	2030.1
11.85	2007.0	2030.7
11.86	2030.0	2031.4
11.87	2090.0	2032.1
11.88	2063.0	2032.7
11.89	2048.0	2033.4
11.9	2000.0	2034.0
11.91	2060.0	2034.7
11.92	2074.0	2035.3
11.93	2069.0	2035.9
11.94	2088.0	2036.6
11.95	2065.0	2037.2
11.96	2068.0	2037.8
11.97	2043.0	2038.4
11.98	2022.0	2039.1
11.99	2026.0	2039.7
12.0	2037.0	2040.3
12.01	1989.0	2040.9
12.02	2067.0	2041.5
12.03	2053.0	2042.1
12.04	2087.0	2042.7
12.05	2058.0	2043.3
12.06	2052.0	2043.9
12.07	2062.0	2044.5
12.08	2072.0	2045.1
12.09	2047.0	2045.7
12.1	2095.0	2046.2
12.11	2139.0	2046.8
12.12	2115.0	2047.4
12.13	2088.0	2048.0
12.14	2038.0	2048.5
12.15	2079.0	2049.1
12.16	2108.0	2049.6
12.17	2109.0	2050.2
12.18	2093.0	2050.8
12.19	2091.0	2051.3
12.2	2090.0	2051.9
12.21	2150.0	2052.4
12.22	2132.0	2053.0
12.23	2081.0	2053.5
12.24	2087.0	2054.0
12.25	2054.0	2054.6
12.26	2099.0	2055.1
12.27	2085.0	2055.6
12.28	2098.0	2056.2
12.29	2113.0	2056.7
12.3	2134.0	2057.2
12.31	2136.0	2057.7
12.32	2119.0	2058.3
12.33	2060.0	2058.8
12.34	2040.0	2059.3
12.35	2092.0	2059.8
12.36	2112.0	2060.3
12.37	2141.0	2060.8
12.38	2130.0	2061.3
12.39	2102.0	2061.8
12.4	2039.0	2062.3
12.41	2052.0	2062.8
12.42	2055.0	2063.3
12.43	2079.0	2063.8
12.44	2064.0	2064.3
12.45	2119.0	2064.8
12.46	2135.0	2065.3
12.47	2128.0	2065.8
12.48	2138.0	2066.2
12.49	2099.0	2066.7
12.5	2059.0	2067.2
12.51	2125.0	2067.7
12.52	2122.0	2068.1
12.53	2122.0	2068.6
12.54	2094.0	2069.1
12.55	2067.0	2069.6
12.56	2070.0	2070.0
12.57	2090.0	2070.5
12.58	2117.0	2070.9
12.59	2143.0	2071.4
12.6	2110.0	2071.9
12.61	2062.0	2072.3
12.62	2067.0	2072.8
12.63	2124.0	2073.2
12.64	2107.0	2073.7
12.65	2085.0	2074.1
12.66	2128.0	2074.6
12.67	2092.0	2075.0
12.68	2106.0	2075.5
12.69	2087.0	2075.9
12.7	2129.0	2076.3
12.71	2098.0	2076.8
12.72	2114.0	2077.2
12.73	2129.0	2077.7
12.74	2085.0	2078.1
12.75	2112.0	2078.5
12.76	2115.0	2078.9
12.77	2112.0	2079.4
12.78	2075.0	2079.8
12.79	2105.0	2080.2
12.8	2089.0	2080.7
12.81	2082.0	2081.1
12.82	2086.0	2081.5
12.83	2141.0	2081.9
12.84	2154.0	2082.4
12.85	2132.0	2082.8
12.86	2136.0	2083.2
12.87	2127.0	2083.6
12.88	2116.0	2084.0
12.89	2133.0	2084.4
12.9	2190.0	2084.9
12.91	2193.0	2085.3
12.92	2080.0	2085.7
12.93	2107.0	2086.1
12.94	2103.0	2086.5
12.95	2077.0	2086.9
12.96	2120.0	2087.3
12.97	2136.0	2087.7
12.98	2127.0	2088.1
12.99	2110.0	2088.5
13.0	2122.0	2088.9
13.01	2069.0	2089.3
13.02	2125.0	2089.7
13.03	2160.0	2090.1
13.04	2189.0	2090.5
13.05	2122.0	2090.9
13.06	2068.0	2091.3
13.07	2057.0	2091.7
13.08	2110.0	2092.1
13.09	2138.0	2092.5
13.1	2121.0	2092.9
13.11	2105.0	2093.3
13.12	2163.0	2093.7
13.13	2145.0	2094.1
13.14	2160.0	2094.5
13.15	2142.0	2094.9
13.16	2123.0	2095.3
13.17	2142.0	2095.7
13.18	2159.0	2096.1
13.19	2134.0	2096.5
13.2	2112.0	2096.9
13.21	2130.0	2097.3
13.22	2155.0	2097.6
13.23	2191.0	2098.0
13.24	2241.0	2098.4
13.25	2167.0	2098.8
13.26	2164.0	2099.2
13.27	2175.0	2099.6
13.28	2170.0	2100.0
13.29	2143.0	2100.3
13.3	2107.0	2100.7
13.31	2144.0	2101.1
13.32	2135.0	2101.5
13.33	2169.0	2101.9
13.34	2159.0	2102.2
13.35	2121.0	2102.6
13.36	2131.0	2103.0
13.37	2181.0	2103.4
13.38	2185.0	2103.8
13.39	2145.0	2104.1
13.4	2078.0	2104.5
13.41	2113.0	2104.9
13.42	2167.0	2105.3
13.43	2172.0	2105.6
13.44	2135.0	2106.0
13.45	2184.0	2106.4
13.46	2205.0	2106.7
13.47	2232.0	2107.1
13.48	2209.0	2107.5
13.49	2166.0	2107.8
13.5	2175.0	2108.2
13.51	2164.0	2108.6
13.52	2216.0	2108.9
13.53	2216.0	2109.3
13.54	2221.0	2109.7
13.55	2184.0	2110.0
13.56	2151.0	2110.4
13.57	2141.0	2110.8
13.58	2139.0	2111.1
13.59	2141.0	2111.5
13.6	2173.0	2111.8
13.61	2214.0	2112.2
13.62	2214.0	2112.5
13.63	2143.0	2112.9
13.64	2126.0	2113.3
13.65	2169.0	2113.6
13.66	2156.0	2114.0
13.67	2185.0	2114.3
13.68	2222.0	2114.7
13.69	2154.0	2115.0
13.7	2136.0	2115.4
13.71	2152.0	2115.7
13.72	2149.0	2116.1
13.73	2143.0	2116.4
13.74	2163.0	2116.7
13.75	2130.0	2117.1
13.76	2134.0	2117.4
13.77	2151.0	2117.8
13.78	2158.0	2118.1
13.79	2157.0	2118.5
13.8	2199.0	2118.8
13.81	2224.0	2119.1
13.82	2233.0	2119.5
13.83	2230.0	2119.8
13.84	2210.0	2120.1
13.85	2190.0	2120.5
13.86	2236.0	2120.8
13.87	2211.0	2121.1
13.88	2195.0	2121.5
13.89	2200.0	2121.8
13.9	2265.0	2122.1
13.91	2256.0	2122.5
13.92	2231.0	2122.8
13.93	2213.0	2123.1
13.94	2144.0	2123.4
13.95	2168.0	2123.8
13.96	2234.0	2124.1
13.97	2229.0	2124.4
13.98	2186.0	2124.7
13.99	2253.0	2125.1
14.0	2243.0	2125.4
14.01	2238.0	2125.7
14.02	2252.0	2126.0
14.03	2238.0	2126.3
14.04	2193.0	2126.6
14.05	2174.0	2127.0
14.06	2166.0	2127.3
14.07	2183.0	2127.6
14.08	2236.0	2127.9
14.09	2195.0	2128.2
14.1	2170.0	2128.5
14.11	2166.0	2128.8
14.12	2165.0	2129.1
14.13	2185.0	2129.4
14.14	2195.0	2129.7
14.15	2220.0	2130.0
14.16	2200.0	2130.3
14.17	2257.0	2130.6
14.18	2262.0	2130.9
14.19	2251.0	2131.2
14.2	2236.0	2131.5
14.21	2225.0	2131.8
14.22	2179.0	2132.1
14.23	2181.0	2132.4
14.24	2197.0	2132.7
14.25	2191.0	2133.0
14.26	2170.0	2133.3
14.27	2179.0	2133.6
14.28	2158.0	2133.9
14.29	2251.0	2134.1
14.3	2240.0	2134.4
14.31	2186.0	2134.7
14.32	2172.0	2135.0
14.33	2181.0	2135.3
14.34	2209.0	2135.6
14.35	2195.0	2135.8
14.36	2198.0	2136.1
14.37	2171.0	2136.4
14.38	2213.0	2136.7
14.39	2211.0	2136.9
14.4	2188.0	2137.2
14.41	2176.0	2137.5
14.42	2174.0	2137.8
14.43	2198.0	2138.0
14.44	2220.0	2138.3
14.45	2228.0	2138.6
14.46	2255.0	2138.8
14.47	2268.0	2139.1
14.48	2268.0	2139.3
14.49	2225.0	2139.6
14.5	2199.0	2139.9
14.51	2227.0	2140.1
14.52	2235.0	2140.4
14.53	2240.0	2140.6
14.54	2253.0	2140.9
14.55	2231.0	2141.2
14.56	2257.0	2141.4
14.57	2218.0	2141.7
14.58	2152.0	2141.9
14.59	2192.0	2142.2
14.6	2185.0	2142.4
14.61	2185.0	2142.6
14.62	2192.0	2142.9
14.63	2202.0	2143.1
14.64	2204.0	2143.4
14.65	2226.0	2143.6
14.66	2256.0	2143.9
14.67	2232.0	2144.1
14.68	2198.0	2144.3
14.69	2208.0	2144.6
14.7	2186.0	2144.8
14.71	2163.0	2145.0
14.72	2180.0	2145.3
14.73	2129.0	2145.5
14.74	2131.0	2145.7
14.75	2200.0	2146.0
14.76	2206.0	2146.2
14.77	2191.0	2146.4
14.78	2152.0	2146.6
14.79	2190.0	2146.8
14.8	2167.0	2147.1
14.81	2163.0	2147.3
14.82	2211.0	2147.5
14.83	2256.0	2147.7
14.84	2235.0	2147.9
14.85	2195.0	2148.1
14.86	2201.0	2148.4
14.87	2165.0	2148.6
14.88	2164.0	2148.8
14.89	2188.0	2149.0
14.9	2196.0	2149.2
14.91	2197.0	2149.4
14.92	2183.0	2149.6
14.93	2117.0	2149.8
14.94	2127.0	2150.0
14.95	2154.0	2150.2
14.96	2160.0	2150.4
14.97	2157.0	2150.6
14.98	2170.0	2150.8
14.99	2161.0	2151.0
15.0	2179.0	2151.2
15.01	2194.0	2151.4
15.02	2223.0	2151.5
15.03	2216.0	2151.7
15.04	2170.0	2151.9
15.05	2169.0	2152.1
15.06	2203.0	2152.3
15.07	2217.0	2152.5
15.08	2182.0	2152.6
15.09	2221.0	2152.8
15.1	2248.0	2153.0
15.11	2184.0	2153.2
15.12	2162.0	2153.3
15.13	2175.0	2153.5
15.14	2182.0	2153.7
15.15	2186.0	2153.8
15.16	2196.0	2154.0
15.17	2225.0	2154.2
15.18	2207.0	2154.3
15.19	2139.0	2154.5
15.2	2125.0	2154.7
15.21	2144.0	2154.8
15.22	2163.0	2155.0
15.23	2189.0	2155.1
15.24	2186.0	2155.3
15.25	2156.0	2155.4
15.26	2145.0	2155.6
15.27	2183.0	2155.7
15.28	2147.0	2155.9
15.29	2131.0	2156.0
15.3	2176.0	2156.2
15.31	2167.0	2156.3
15.32	2186.0	2156.5
15.33	2225.0	2156.6
15.34	2198.0	2156.7
15.35	2200.0	2156.9
15.36	2214.0	2157.0
15.37	2185.0	2157.1
15.38	2216.0	2157.3
15.39	2195.0	2157.4
15.4	2171.0	2157.5
15.41	2207.0	2157.6
15.42	2220.0	2157.8
15.43	2202.0	2157.9
15.44	2155.0	2158.0
15.45	2127.0	2158.1
15.46	2112.0	2158.3
15.47	2163.0	2158.4
15.48	2177.0	2158.5
15.49	2178.0	2158.6
15.5	2163.0	2158.7
15.51	2160.0	2158.8
15.52	2168.0	2158.9
15.53	2172.0	2159.0
15.54	2193.0	2159.1
15.55	2183.0	2159.2
15.56	2134.0	2159.3
15.57	2127.0	2159.4
15.58	2191.0	2159.5
15.59	2173.0	2159.6
15.6	2154.0	2159.7
15.61	2143.0	2159.8
15.62	2174.0	2159.9
15.63	2188.0	2160.0
15.64	2207.0	2160.1
15.65	2196.0	2160.2
15.66	2179.0	2160.2
15.67	2136.0	2160.3
15.68	2144.0	2160.4
15.69	2171.0	2160.5
15.7	2188.0	2160.6
15.71	2202.0	2160.6
15.72	2216.0	2160.7
15.73	2206.0	2160.8
15.74	2205.0	2160.8
15.75	2218.0	2160.9
15.76	2201.0	2161.0
15.77	2192.0	2161.0
15.78	2193.0	2161.1
15.79	2146.0	2161.1
15.8	2179.0	2161.2
15.81	2200.0	2161.3
15.82	2158.0	2161.3
15.83	2170.0	2161.4
15.84	2188.0	2161.4
15.85	2172.0	2161.5
15.86	2136.0	2161.5
15.87	2120.0	2161.6
15.88	2139.0	2161.6
15.89	2183.0	2161.6
15.9	2155.0	2161.7
15.91	2126.0	2161.7
15.92	2130.0	2161.7
15.93	2142.0	2161.8
15.94	2169.0	2161.8
15.95	2162.0	2161.8
15.96	2115.0	2161.9
15.97	2109.0	2161.9
15.98	2160.0	2161.9
15.99	2155.0	2161.9
16.0	2139.0	2162.0
16.01	2143.0	2162.0
16.02	2117.0	2162.0
16.03	2143.0	2162.0
16.04	2167.0	2162.0
16.05	2154.0	2162.0
16.06	2170.0	2162.0
16.07	2190.0	2162.0
16.08	2213.0	2162.0
16.09	2210.0	2162.0
16.1	2181.0	2162.0
16.11	2182.0	2162.0
16.12	2164.0	2162.0
16.13	2124.0	2162.0
16.14	2124.0	2162.0
16.15	2172.0	2162.0
16.16	2212.0	2162.0
16.17	2189.0	2162.0
16.18	2142.0	2162.0
16.19	2128.0	2161.9
16.2	2169.0	2161.9
16.21	2204.0	2161.9
16.22	2172.0	2161.9
16.23	2150.0	2161.9
16.24	2149.0	2161.8
16.25	2167.0	2161.8
16.26	2185.0	2161.8
16.27	2165.0	2161.7
16.28	2155.0	2161.7
16.29	2174.0	2161.7
16.3	2147.0	2161.6
16.31	2084.0	2161.6
16.32	2099.0	2161.5
16.33	2170.0	2161.5
16.34	2204.0	2161.4
16.35	2201.0	2161.4
16.36	2180.0	2161.3
16.37	2156.0	2161.3
16.38	2134.0	2161.2
16.39	2113.0	2161.2
16.4	2121.0	2161.1
16.41	2107.0	2161.0
16.42	2130.0	2161.0
16.43	2110.0	2160.9
16.44	2091.0	2160.8
16.45	2107.0	2160.7
16.46	2115.0	2160.7
16.47	2145.0	2160.6
16.48	2108.0	2160.5
16.49	2089.0	2160.4
16.5	2107.0	2160.4
16.51	2128.0	2160.3
16.52	2164.0	2160.2
16.53	2165.0	2160.1
16.54	2140.0	2160.0
16.55	2112.0	2159.9
16.56	2093.0	2159.8
16.57	2099.0	2159.7
16.58	2110.0	2159.6
16.59	2126.0	2159.5
16.6	2147.0	2159.4
16.61	2133.0	2159.3
16.62	2146.0	2159.2
16.63	2132.0	2159.1
16.64	2105.0	2159.0
16.65	2098.0	2158.9
16.66	2151.0	2158.7
16.67	2148.0	2158.6
16.68	2122.0	2158.5
16.69	2152.0	2158.4
16.7	2133.0	2158.2
16.71	2120.0	2158.1
16.72	2109.0	2158.0
16.73	2100.0	2157.8
16.74	2100.0	2157.7
16.75	2100.0	2157.6
16.76	2096.0	2157.4
16.77	2088.0	2157.3
16.78	2109.0	2157.1
16.79	2139.0	2157.0
16.8	2155.0	2156.8
16.81	2133.0	2156.7
16.82	2117.0	2156.5
16.83	2117.0	2156.4
16.84	2119.0	2156.2
16.85	2120.0	2156.1
16.86	2129.0	2155.9
16.87	2153.0	2155.7
16.88	2129.0	2155.6
16.89	2133.0	2155.4
16.9	2145.0	2155.2
16.91	2118.0	2155.1
16.92	2114.0	2154.9
16.93	2107.0	2154.7
16.94	2093.0	2154.5
16.95	2094.0	2154.3
16.96	2097.0	2154.1
16.97	2094.0	2154.0
16.98	2073.0	2153.8
16.99	2059.0	2153.6
17.0	2083.0	2153.4
17.01	2129.0	2153.2
17.02	2155.0	2153.0
17.03	2137.0	2152.8
17.04	2125.0	2152.6
17.05	2176.0	2152.4
17.06	2189.0	2152.1
17.07	2137.0	2151.9
17.08	2096.0	2151.7
17.09	2122.0	2151.5
17.1	2142.0	2151.3
17.11	2144.0	2151.1
17.12	2146.0	2150.8
17.13	2124.0	2150.6
17.14	2101.0	2150.4
17.15	2108.0	2150.1
17.16	2144.0	2149.9
17.17	2112.0	2149.7
17.18	2081.0	2149.4
17.19	2089.0	2149.2
17.2	2087.0	2149.0
17.21	2085.0	2148.7
17.22	2087.0	2148.5
17.23	2104.0	2148.2
17.24	2115.0	2148.0
17.25	2107.0	2147.7
17.26	2106.0	2147.4
17.27	2123.0	2147.2
17.28	2113.0	2146.9
17.29	2098.0	2146.6
17.3	2106.0	2146.4
17.31	2097.0	2146.1
17.32	2055.0	2145.8
17.33	2060.0	2145.6
17.34	2075.0	2145.3
17.35	2062.0	2145.0
17.36	2078.0	2144.7
17.37	2094.0	2144.4
17.38	2088.0	2144.1
17.39	2068.0	2143.8
17.4	2079.0	2143.5
17.41	2067.0	2143.2
17.42	2039.0	2142.9
17.43	2067.0	2142.6
17.44	2108.0	2142.3
17.45	2113.0	2142.0
17.46	2086.0	2141.7
17.47	2096.0	2141.4
17.48	2098.0	2141.1
17.49	2080.0	2140.8
17.5	2086.0	2140.5
17.51	2088.0	2140.1
17.52	2094.0	2139.8
17.53	2114.0	2139.5
17.54	2094.0	2139.2
17.55	2058.0	2138.8
17.56	2057.0	2138.5
17.57	2088.0	2138.1
17.58	2135.0	2137.8
17.59	2136.0	2137.5
17.6	2122.0	2137.1
17.61	2140.0	2136.8
17.62	2134.0	2136.4
17.63	2129.0	2136.1
17.64	2130.0	2135.7
17.65	2116.0	2135.3
17.66	2116.0	2135.0
17.67	2109.0	2134.6
17.68	2068.0	2134.3
17.69	2062.0	2133.9
17.7	2109.0	2133.5
17.71	2108.0	2133.1
17.72	2116.0	2132.8
17.73	2110.0	2132.4
17.74	2072.0	2132.0
17.75	2053.0	2131.6
17.76	2079.0	2131.2
17.77	2153.0	2130.8
17.78	2147.0	2130.4
17.79	2105.0	2130.0
17.8	2129.0	2129.6
17.81	2154.0	2129.2
17.82	2149.0	2128.8
17.83	2127.0	2128.4
17.84	2107.0	2128.0
17.85	2130.0	2127.6
17.86	2166.0	2127.2
17.87	2165.0	2126.8
17.88	2142.0	2126.3
17.89	2098.0	2125.9
17.9	2088.0	2125.5
17.91	2109.0	2125.1
17.92	2104.0	2124.6
17.93	2142.0	2124.2
17.94	2167.0	2123.8
17.95	2186.0	2123.3
17.96	2183.0	2122.9
17.97	2149.0	2122.4
17.98	2183.0	2122.0
17.99	2195.0	2121.5
18.0	2192.0	2121.1
18.01	2190.0	2120.6
18.02	2165.0	2120.2
18.03	2163.0	2119.7
18.04	2171.0	2119.2
18.05	2143.0	2118.8
18.06	2145.0	2118.3
18.07	2159.0	2117.8
18.08	2171.0	2117.3
18.09	2191.0	2116.9
18.1	2203.0	2116.4
18.11	2212.0	2115.9
18.12	2214.0	2115.4
18.13	2222.0	2114.9
18.14	2249.0	2114.4
18.15	2243.0	2113.9
18.16	2242.0	2113.4
18.17	2272.0	2112.9
18.18	2228.0	2112.4
18.19	2228.0	2111.9
18.2	2320.0	2111.4
18.21	2340.0	2110.9
18.22	2300.0	2110.3
18.23	2329.0	2109.8
18.24	2358.0	2109.3
18.25	2366.0	2108.8
18.26	2370.0	2108.2
18.27	2363.0	2107.7
18.28	2384.0	2107.2
18.29	2428.0	2106.6
18.3	2458.0	2106.1
18.31	2437.0	2105.6
18.32	2407.0	2105.0
18.33	2434.0	2104.5
18.34	2472.0	2103.9
18.35	2516.0	2103.4
18.36	2558.0	2102.8
18.37	2607.0	2102.2
18.38	2665.0	2101.7
18.39	2719.0	2101.1
18.4	2822.0	2100.5
18.41	2913.0	2100.0
18.42	2925.0	2099.4
18.43	2945.0	2098.8
18.44	3020.0	2098.2
18.45	3112.0	2097.6
18.46	3211.0	2097.0
18.47	3344.0	2096.5
18.48	3508.0	2095.9
18.49	3687.0	2095.3
18.5	3854.0	2094.7
18.51	4051.0	2094.1
18.52	4282.0	2093.4
18.53	4571.0	2092.8
18.54	4858.0	2092.2
18.55	5231.0	2091.6
18.56	5708.0	2091.0
18.57	6138.0	2090.4
18.58	6531.0	2089.7
18.59	6902.0	2089.1
18.6	7190.0	2088.5
18.61	7378.0	2087.9
18.62	7307.0	2087.2
18.63	7033.0	2086.6
18.64	6658.0	2085.9
18.65	6142.0	2085.3
18.66	5578.0	2084.6
18.67	5006.0	2084.0
18.68	4472.0	2083.3
18.69	4056.0	2082.7
18.7	3607.0	2082.0
18.71	3194.0	2081.3
18.72	2948.0	2080.7
18.73	2816.0	2080.0
18.74	2690.0	2079.3
18.75	2590.0	2078.7
18.76	2495.0	2078.0
18.77	2418.0	2077.3
18.78	2361.0	2076.6
18.79	2299.0	2075.9
18.8	2283.0	2075.2
18.81	2278.0	2074.5
18.82	2283.0	2073.8
18.83	2290.0	2073.1
18.84	2231.0	2072.4
18.85	2203.0	2071.7
18.86	2191.0	2071.0
18.87	2165.0	2070.3
18.88	2133.0	2069.6
18.89	2152.0	2068.8
18.9	2210.0	2068.1
18.91	2227.0	2067.4
18.92	2202.0	2066.6
18.93	2162.0	2065.9
18.94	2160.0	2065.2
18.95	2210.0	2064.4
18.96	2191.0	2063.7
18.97	2146.0	2062.9
18.98	2172.0	2062.2
18.99	2183.0	2061.4
19.0	2121.0	2060.7
19.01	2084.0	2059.9
19.02	2045.0	2059.2
19.03	2059.0	2058.4
19.04	2100.0	2057.6
19.05	2116.0	2056.8
19.06	2168.0	2056.1
19.07	2139.0	2055.3
19.08	2096.0	2054.5
19.09	2074.0	2053.7
19.1	2093.0	2052.9
19.11	2113.0	2052.1
19.12	2102.0	2051.3
19.13	2094.0	2050.5
19.14	2079.0	2049.7
19.15	2036.0	2048.9
19.16	2030.0	2048.1
19.17	2045.0	2047.3
19.18	2044.0	2046.5
19.19	2047.0	2045.7
19.2	2057.0	2044.8
19.21	2023.0	2044.0
19.22	1997.0	2043.2
19.23	2040.0	2042.4
19.24	2076.0	2041.5
19.25	2082.0	2040.7
19.26	2065.0	2039.8
19.27	2079.0	2039.0
19.28	2065.0	2038.1
19.29	2021.0	2037.3
19.3	2007.0	2036.4
19.31	2064.0	2035.6
19.32	2075.0	2034.7
19.33	2040.0	2033.8
19.34	2054.0	2033.0
19.35	2059.0	2032.1
19.36	2028.0	2031.2
19.37	2030.0	2030.3
19.38	2055.0	2029.5
19.39	2043.0	2028.6
19.4	2025.0	2027.7
19.41	2026.0	2026.8
19.42	2061.0	2025.9
19.43	2069.0	2025.0
19.44	2033.0	2024.1
19.45	2039.0	2023.2
19.46	2079.0	2022.3
19.47	2043.0	2021.4
19.48	2005.0	2020.4
19.49	2051.0	2019.5
19.5	2077.0	2018.6
19.51	2078.0	2017.7
19.52	2030.0	2016.7
19.53	2018.0	2015.8
19.54	2039.0	2014.9
19.55	2039.0	2013.9
19.56	2019.0	2013.0
19.57	2009.0	2012.0
19.58	2025.0	2011.1
19.59	2012.0	2010.1
19.6	1965.0	2009.2
19.61	1933.0	2008.2
19.62	1998.0	2007.2
19.63	2040.0	2006.3
19.64	2082.0	2005.3
19.65	2085.0	2004.3
19.66	2066.0	2003.3
19.67	2020.0	2002.3
19.68	1974.0	2001.3
19.69	1970.0	2000.4
19.7	1979.0	1999.4
19.71	2005.0	1998.4
19.72	2012.0	1997.4
19.73	1994.0	1996.4
19.74	1977.0	1995.3
19.75	1958.0	1994.3
19.76	1968.0	1993.3
19.77	1975.0	1992.3
19.78	1963.0	1991.3
19.79	1955.0	1990.2
19.8	1961.0	1989.2
19.81	1980.0	1988.2
19.82	1971.0	1987.1
19.83	1992.0	1986.1
19.84	2024.0	1985.1
19.85	2016.0	1984.0
19.86	1989.0	1983.0
19.87	2016.0	1981.9
19.88	1999.0	1980.8
19.89	1989.0	1979.8
19.9	1988.0	1978.7
19.91	1974.0	1977.6
19.92	2001.0	1976.6
19.93	2018.0	1975.5
19.94	2010.0	1974.4
19.95	1979.0	1973.3
19.96	1977.0	1972.2
19.97	1931.0	1971.1
19.98	1973.0	1970.0
19.99	2032.0	1968.9
20.0	2004.0	1967.8
20.01	1991.0	1966.7
20.02	1977.0	1965.6
20.03	1931.0	1964.5
20.04	1950.0	1963.4
20.05	1959.0	1962.3
20.06	1995.0	1961.2
20.07	2040.0	1960.0
20.08	1994.0	1958.9
20.09	1987.0	1957.8
20.1	2005.0	1956.6
20.11	1997.0	1955.5
20.12	2002.0	1954.3
20.13	2012.0	1953.2
20.14	1993.0	1952.0
20.15	1953.0	1950.9
20.16	1978.0	1949.7
20.17	2007.0	1948.6
20.18	2023.0	1947.4
20.19	2011.0	1946.2
20.2	2005.0	1945.1
20.21	1990.0	1943.9
20.22	1965.0	1942.7
20.23	1960.0	1941.5
20.24	1952.0	1940.4
20.25	1940.0	1939.2
20.26	1950.0	1938.0
20.27	1970.0	1936.8
20.28	2018.0	1935.6
20.29	2033.0	1934.4
20.3	2032.0	1933.2
20.31	1980.0	1932.0
20.32	1974.0	1930.8
20.33	1978.0	1929.6
20.34	1973.0	1928.4
20.35	1970.0	1927.2
20.36	1968.0	1926.0
20.37	1937.0	1924.8
20.38	1911.0	1923.5
20.39	1920.0	1922.3
20.4	1942.0	1921.1
20.41	1937.0	1919.9
20.42	1946.0	1918.6
20.43	1973.0	1917.4
20.44	1947.0	1916.2
20.45	1899.0	1914.9
20.46	1936.0	1913.7
20.47	1952.0	1912.5
20.48	1901.0	1911.2
20.49	1911.0	1910.0
20.5	1941.0	1908.7
20.51	1969.0	1907.5
20.52	1935.0	1906.2
20.53	1951.0	1905.0
20.54	1978.0	1903.7
20.55	1958.0	1902.5
20.56	1882.0	1901.2
20.57	1924.0	1899.9
20.58	1921.0	1898.7
20.59	1921.0	1897.4
20.6	1944.0	1896.1
20.61	1945.0	1894.9
20.62	1922.0	1893.6
20.63	1925.0	1892.3
20.64	1945.0	1891.1
20.65	1897.0	1889.8
20.66	1909.0	1888.5
20.67	1919.0	1887.2
20.68	1884.0	1886.0
20.69	1904.0	1884.7
20.7	1905.0	1883.4
20.71	1904.0	1882.1
20.72	1847.0	1880.8
20.73	1917.0	1879.5
20.74	1924.0	1878.2
20.75	1871.0	1876.9
20.76	1877.0	1875.7
20.77	1877.0	1874.4
20.78	1936.0	1873.1
20.79	1898.0	1871.8
20.8	1883.0	1870.5
20.81	1931.0	1869.2
20.82	1952.0	1867.9
20.83	1895.0	1866.6
20.84	1889.0	1865.3
20.85	1898.0	1864.0
20.86	1890.0	1862.7
20.87	1858.0	1861.4
20.88	1840.0	1860.0
20.89	1831.0	1858.7
20.9	1856.0	1857.4
20.91	1894.0	1856.1
20.92	1883.0	1854.8
20.93	1885.0	1853.5
20.94	1900.0	1852.2
20.95	1904.0	1850.9
20.96	1859.0	1849.6
20.97	1879.0	1848.2
20.98	1888.0	1846.9
20.99	1870.0	1845.6
21.0	1861.0	1844.3
21.01	1851.0	1843.0
21.02	1848.0	1841.7
21.03	1869.0	1840.3
21.04	1872.0	1839.0
21.05	1892.0	1837.7
21.06	1876.0	1836.4
21.07	1858.0	1835.1
21.08	1845.0	1833.7
21.09	1817.0	1832.4
21.1	1833.0	1831.1
21.11	1874.0	1829.8
21.12	1868.0	1828.4
21.13	1818.0	1827.1
21.14	1846.0	1825.8
21.15	1881.0	1824.5
21.16	1875.0	1823.1
21.17	1841.0	1821.8
21.18	1895.0	1820.5
21.19	1847.0	1819.2
21.2	1836.0	1817.8
21.21	1859.0	1816.5
21.22	1838.0	1815.2
21.23	1854.0	1813.9
21.24	1849.0	1812.5
21.25	1841.0	1811.2
21.26	1846.0	1809.9
21.27	1812.0	1808.6
21.28	1829.0	1807.2
21.29	1797.0	1805.9
21.3	1804.0	1804.6
21.31	1844.0	1803.3
21.32	1784.0	1801.9
21.33	1799.0	1800.6
21.34	1827.0	1799.3
21.35	1816.0	1798.0
21.36	1807.0	1796.6
21.37	1797.0	1795.3
21.38	1855.0	1794.0
21.39	1816.0	1792.7
21.4	1791.0	1791.4
21.41	1817.0	1790.0
21.42	1792.0	1788.7
21.43	1807.0	1787.4
21.44	1854.0	1786.1
21.45	1831.0	1784.8
21.46	1799.0	1783.4
21.47	1805.0	1782.1
21.48	1804.0	1780.8
21.49	1832.0	1779.5
21.5	1789.0	1778.2
21.51	1766.0	1776.9
21.52	1750.0	1775.6
21.53	1769.0	1774.2
21.54	1800.0	1772.9
21.55	1843.0	1771.6
21.56	1759.0	1770.3
21.57	1786.0	1769.0
21.58	1741.0	1767.7
21.59	1786.0	1766.4
21.6	1817.0	1765.1
21.61	1777.0	1763.8
21.62	1785.0	1762.5
21.63	1758.0	1761.2
21.64	1788.0	1759.9
21.65	1782.0	1758.6
21.66	1766.0	1757.3
21.67	1727.0	1756.0
21.68	1751.0	1754.7
21.69	1761.0	1753.4
21.7	1764.0	1752.1
21.71	1748.0	1750.8
21.72	1740.0	1749.5
21.73	1765.0	1748.2
21.74	1738.0	1746.9
21.75	1739.0	1745.6
21.76	1756.0	1744.3
21.77	1759.0	1743.1
21.78	1780.0	1741.8
21.79	1783.0	1740.5
21.8	1765.0	1739.2
21.81	1736.0	1737.9
21.82	1732.0	1736.7
21.83	1752.0	1735.4
21.84	1730.0	1734.1
21.85	1762.0	1732.9
21.86	1781.0	1731.6
21.87	1757.0	1730.3
21.88	1712.0	1729.1
21.89	1700.0	1727.8
21.9	1733.0	1726.5
21.91	1746.0	1725.3
21.92	1775.0	1724.0
21.93	1787.0	1722.8
21.94	1751.0	1721.5
21.95	1728.0	1720.3
21.96	1763.0	1719.0
21.97	1764.0	1717.8
21.98	1747.0	1716.5
21.99	1817.0	1715.3
22.0	1801.0	1714.0
22.01	1781.0	1712.8
22.02	1757.0	1711.6
22.03	1744.0	1710.3
22.04	1777.0	1709.1
22.05	1779.0	1707.9
22.06	1783.0	1706.6
22.07	1720.0	1705.4
22.08	1744.0	1704.2
22.09	1786.0	1703.0
22.1	1754.0	1701.8
22.11	1747.0	1700.5
22.12	1718.0	1699.3
22.13	1730.0	1698.1
22.14	1765.0	1696.9
22.15	1767.0	1695.7
22.16	1740.0	1694.5
22.17	1692.0	1693.3
22.18	1742.0	1692.1
22.19	1732.0	1690.9
22.2	1700.0	1689.7
22.21	1665.0	1688.5
22.22	1674.0	1687.4
22.23	1708.0	1686.2
22.24	1707.0	1685.0
22.25	1751.0	1683.8
22.26	1729.0	1682.6
22.27	1724.0	1681.5
22.28	1698.0	1680.3
22.29	1697.0	1679.1
22.3	1726.0	1678.0
22.31	1727.0	1676.8
22.32	1721.0	1675.7
22.33	1753.0	1674.5
22.34	1717.0	1673.4
22.35	1750.0	1672.2
22.36	1741.0	1671.1
22.37	1713.0	1669.9
22.38	1750.0	1668.8
22.39	1741.0	1667.7
22.4	1708.0	1666.5
22.41	1703.0	1665.4
22.42	1705.0	1664.3
22.43	1745.0	1663.1
22.44	1756.0	1662.0
22.45	1777.0	1660.9
22.46	1663.0	1659.8
22.47	1692.0	1658.7
22.48	1721.0	1657.5
22.49	1706.0	1656.4
22.5	1705.0	1655.3
22.51	1698.0	1654.2
22.52	1728.0	1653.1
22.53	1705.0	1652.0
22.54	1673.0	1650.9
22.55	1669.0	1649.8
22.56	1728.0	1648.8
22.57	1694.0	1647.7
22.58	1683.0	1646.6
22.59	1691.0	1645.5
22.6	1663.0	1644.4
22.61	1671.0	1643.3
22.62	1675.0	1642.3
22.63	1726.0	1641.2
22.64	1705.0	1640.1
22.65	1678.0	1639.1
22.66	1667.0	1638.0
22.67	1671.0	1636.9
22.68	1690.0	1635.9
22.69	1692.0	1634.8
22.7	1679.0	1633.8
22.71	1703.0	1632.7
22.72	1709.0	1631.7
22.73	1703.0	1630.6
22.74	1642.0	1629.6
22.75	1625.0	1628.5
22.76	1678.0	1627.5
22.77	1672.0	1626.5
22.78	1696.0	1625.4
22.79	1718.0	1624.4
22.8	1682.0	1623.4
22.81	1675.0	1622.3
22.82	1713.0	1621.3
22.83	1628.0	1620.3
22.84	1663.0	1619.3
22.85	1666.0	1618.3
22.86	1675.0	1617.3
22.87	1642.0	1616.2
22.88	1634.0	1615.2
22.89	1653.0	1614.2
22.9	1660.0	1613.2
22.91	1648.0	1612.2
22.92	1631.0	1611.2
22.93	1687.0	1610.2
22.94	1664.0	1609.2
22.95	1631.0	1608.3
22.96	1661.0	1607.3
22.97	1694.0	1606.3
22.98	1672.0	1605.3
22.99	1684.0	1604.3
23.0	1684.0	1603.3
23.01	1677.0	1602.4
23.02	1651.0	1601.4
23.03	1624.0	1600.4
23.04	1658.0	1599.5
23.05	1649.0	1598.5
23.06	1677.0	1597.5
23.07	1717.0	1596.6
23.08	1680.0	1595.6
23.09	1664.0	1594.7
23.1	1638.0	1593.7
23.11	1631.0	1592.7
23.12	1652.0	1591.8
23.13	1651.0	1590.9
23.14	1669.0	1589.9
23.15	1675.0	1589.0
23.16	1647.0	1588.0
23.17	1653.0	1587.1
23.18	1660.0	1586.2
23.19	1598.0	1585.2
23.2	1618.0	1584.3
23.21	1613.0	1583.4
23.22	1647.0	1582.4
23.23	1644.0	1581.5
23.24	1614.0	1580.6
23.25	1642.0	1579.7
23.26	1615.0	1578.8
23.27	1594.0	1577.9
23.28	1636.0	1576.9
23.29	1633.0	1576.0
23.3	1659.0	1575.1
23.31	1639.0	1574.2
23.32	1599.0	1573.3
23.33	1614.0	1572.4
23.34	1657.0	1571.5
23.35	1604.0	1570.6
23.36	1635.0	1569.7
23.37	1633.0	1568.8
23.38	1654.0	1568.0
23.39	1694.0	1567.1
23.4	1662.0	1566.2
23.41	1642.0	1565.3
23.42	1666.0	1564.4
23.43	1658.0	1563.6
23.44	1659.0	1562.7
23.45	1634.0	1561.8
23.46	1588.0	1560.9
23.47	1582.0	1560.1
23.48	1596.0	1559.2
23.49	1598.0	1558.3
23.5	1635.0	1557.5
23.51	1621.0	1556.6
23.52	1617.0	1555.8
23.53	1579.0	1554.9
23.54	1584.0	1554.1
23.55	1651.0	1553.2
23.56	1678.0	1552.4
23.57	1641.0	1551.5
23.58	1607.0	1550.7
23.59	1612.0	1549.8
23.6	1624.0	1549.0
23.61	1640.0	1548.1
23.62	1634.0	1547.3
23.63	1603.0	1546.5
23.64	1599.0	1545.6
23.65	1575.0	1544.8
23.66	1566.0	1544.0
23.67	1617.0	1543.2
23.68	1624.0	1542.3
23.69	1609.0	1541.5
23.7	1631.0	1540.7
23.71	1586.0	1539.9
23.72	1575.0	1539.1
23.73	1620.0	1538.3
23.74	1624.0	1537.4
23.75	1602.0	1536.6
23.76	1578.0	1535.8
23.77	1608.0	1535.0
23.78	1610.0	1534.2
23.79	1609.0	1533.4
23.8	1640.0	1532.6
23.81	1628.0	1531.8
23.82	1600.0	1531.0
23.83	1595.0	1530.2
23.84	1582.0	1529.5
23.85	1602.0	1528.7
23.86	1650.0	1527.9
23.87	1669.0	1527.1
23.88	1617.0	1526.3
23.89	1602.0	1525.5
23.9	1567.0	1524.8
23.91	1572.0	1524.0
23.92	1598.0	1523.2
23.93	1608.0	1522.4
23.94	1567.0	1521.7
23.95	1567.0	1520.9
23.96	1576.0	1520.1
23.97	1626.0	1519.4
23.98	1591.0	1518.6
23.99	1563.0	1517.9
24.0	1542.0	1517.1
24.01	1573.0	1516.3
24.02	1561.0	1515.6
24.03	1586.0	1514.8
24.04	1587.0	1514.1
24.05	1606.0	1513.3
24.06	1586.0	1512.6
24.07	1531.0	1511.8
24.08	1549.0	1511.1
24.09	1581.0	1510.4
24.1	1582.0	1509.6
24.11	1532.0	1508.9
24.12	1544.0	1508.1
24.13	1543.0	1507.4
24.14	1550.0	1506.7
24.15	1560.0	1506.0
24.16	1576.0	1505.2
24.17	1607.0	1504.5
24.18	1618.0	1503.8
24.19	1582.0	1503.1
24.2	1510.0	1502.3
24.21	1492.0	1501.6
24.22	1567.0	1500.9
24.23	1589.0	1500.2
24.24	1573.0	1499.5
24.25	1516.0	1498.8
24.26	1517.0	1498.1
24.27	1573.0	1497.3
24.28	1538.0	1496.6
24.29	1557.0	1495.9
24.3	1553.0	1495.2
24.31	1545.0	1494.5
24.32	1511.0	1493.8
24.33	1535.0	1493.1
24.34	1592.0	1492.4
24.35	1531.0	1491.8
24.36	1499.0	1491.1
24.37	1545.0	1490.4
24.38	1518.0	1489.7
24.39	1520.0	1489.0
24.4	1525.0	1488.3
24.41	1539.0	1487.6
24.42	1558.0	1486.9
24.43	1576.0	1486.3
24.44	1586.0	1485.6
24.45	1559.0	1484.9
24.46	1511.0	1484.2
24.47	1549.0	1483.6
24.48	1573.0	1482.9
24.49	1548.0	1482.2
24.5	1546.0	1481.6
24.51	1526.0	1480.9
24.52	1543.0	1480.2
24.53	1571.0	1479.6
24.54	1557.0	1478.9
24.55	1545.0	1478.3
24.56	1560.0	1477.6
24.57	1528.0	1476.9
24.58	1555.0	1476.3
24.59	1546.0	1475.6
24.6	1520.0	1475.0
24.61	1542.0	1474.3
24.62	1527.0	1473.7
24.63	1497.0	1473.0
24.64	1476.0	1472.4
24.65	1534.0	1471.8
24.66	1529.0	1471.1
24.67	1514.0	1470.5
24.68	1492.0	1469.8
24.69	1522.0	1469.2
24.7	1583.0	1468.6
24.71	1583.0	1467.9
24.72	1549.0	1467.3
24.73	1543.0	1466.7
24.74	1572.0	1466.0
24.75	1583.0	1465.4
24.76	1575.0	1464.8
24.77	1550.0	1464.2
24.78	1533.0	1463.5
24.79	1532.0	1462.9
24.8	1505.0	1462.3
24.81	1496.0	1461.7
24.82	1535.0	1461.1
24.83	1579.0	1460.5
24.84	1545.0	1459.9
24.85	1527.0	1459.2
24.86	1534.0	1458.6
24.87	1547.0	1458.0
24.88	1569.0	1457.4
24.89	1537.0	1456.8
24.9	1493.0	1456.2
24.91	1504.0	1455.6
24.92	1550.0	1455.0
24.93	1504.0	1454.4
24.94	1526.0	1453.8
24.95	1556.0	1453.2
24.96	1586.0	1452.6
24.97	1560.0	1452.0
24.98	1537.0	1451.4
24.99	1542.0	1450.8
25.0	1540.0	1450.3
25.01	1545.0	1449.7
25.02	1535.0	1449.1
25.03	1550.0	1448.5
25.04	1556.0	1447.9
25.05	1549.0	1447.3
25.06	1537.0	1446.7
25.07	1513.0	1446.2
25.08	1492.0	1445.6
25.09	1536.0	1445.0
25.1	1544.0	1444.4
25.11	1541.0	1443.9
25.12	1551.0	1443.3
25.13	1536.0	1442.7
25.14	1573.0	1442.2
25.15	1596.0	1441.6
25.16	1552.0	1441.0
25.17	1581.0	1440.5
25.18	1596.0	1439.9
25.19	1608.0	1439.3
25.2	1633.0	1438.8
25.21	1601.0	1438.2
25.22	1582.0	1437.6
25.23	1617.0	1437.1
25.24	1626.0	1436.5
25.25	1639.0	1436.0
25.26	1694.0	1435.4
25.27	1682.0	1434.9
25.28	1678.0	1434.3
25.29	1685.0	1433.8
25.3	1682.0	1433.2
25.31	1695.0	1432.7
25.32	1709.0	1432.1
25.33	1687.0	1431.6
25.34	1723.0	1431.0
25.35	1718.0	1430.5
25.36	1714.0	1430.0
25.37	1757.0	1429.4
25.38	1708.0	1428.9
25.39	1705.0	1428.3
25.4	1697.0	1427.8
25.41	1690.0	1427.3
25.42	1662.0	1426.7
25.43	1656.0	1426.2
25.44	1684.0	1425.7
25.45	1681.0	1425.2
25.46	1667.0	1424.6
25.47	1684.0	1424.1
25.48	1670.0	1423.6
25.49	1657.0	1423.0
25.5	1672.0	1422.5
25.51	1703.0	1422.0
25.52	1738.0	1421.5
25.53	1746.0	1421.0
25.54	1767.0	1420.4
25.55	1821.0	1419.9
25.56	1814.0	1419.4
25.57	1814.0	1418.9
25.58	1819.0	1418.4
25.59	1849.0	1417.9
25.6	1901.0	1417.4
25.61	1961.0	1416.8
25.62	2008.0	1416.3
25.63	2025.0	1415.8
25.64	2062.0	1415.3
25.65	2091.0	1414.8
25.66	2143.0	1414.3
25.67	2201.0	1413.8
25.68	2284.0	1413.3
25.69	2362.0	1412.8
25.7	2451.0	1412.3
25.71	2576.0	1411.8
25.72	2648.0	1411.3
25.73	2719.0	1410.8
25.74	2888.0	1410.3
25.75	3024.0	1409.8
25.76	3152.0	1409.3
25.77	3226.0	1408.8
25.78	3280.0	1408.3
25.79	3330.0	1407.8
25.8	3380.0	1407.3
25.81	3413.0	1406.9
25.82	3434.0	1406.4
25.83	3381.0	1405.9
25.84	3309.0	1405.4
25.85	3305.0	1404.9
25.86	3225.0	1404.4
25.87	3088.0	1403.9
25.88	3012.0	1403.5
25.89	2934.0	1403.0
25.9	2785.0	1402.5
25.91	2654.0	1402.0
25.92	2549.0	1401.5
25.93	2461.0	1401.1
25.94	2341.0	1400.6
25.95	2242.0	1400.1
25.96	2145.0	1399.6
25.97	2090.0	1399.2
25.98	2046.0	1398.7
25.99	1988.0	1398.2
26.0	1938.0	1397.7
26.01	1885.0	1397.3
26.02	1828.0	1396.8
26.03	1824.0	1396.3
26.04	1772.0	1395.9
26.05	1714.0	1395.4
26.06	1703.0	1394.9
26.07	1665.0	1394.5
26.08	1624.0	1394.0
26.09	1624.0	1393.5
26.1	1642.0	1393.1
26.11	1664.0	1392.6
26.12	1650.0	1392.2
26.13	1650.0	1391.7
26.14	1645.0	1391.2
26.15	1636.0	1390.8
26.16	1594.0	1390.3
26.17	1570.0	1389.9
26.18	1577.0	1389.4
26.19	1579.0	1389.0
26.2	1564.0	1388.5
26.21	1535.0	1388.1
26.22	1555.0	1387.6
26.23	1563.0	1387.2
26.24	1556.0	1386.7
26.25	1571.0	1386.3
26.26	1578.0	1385.8
26.27	1554.0	1385.4
26.28	1551.0	1384.9
26.29	1548.0	1384.5
26.3	1510.0	1384.0
26.31	1488.0	1383.6
26.32	1513.0	1383.1
26.33	1517.0	1382.7
26.34	1500.0	1382.3
26.35	1487.0	1381.8
26.36	1464.0	1381.4
26.37	1479.0	1380.9
26.38	1512.0	1380.5
26.39	1477.0	1380.1
26.4	1460.0	1379.6
26.41	1450.0	1379.2
26.42	1417.0	1378.7
26.43	1413.0	1378.3
26.44	1466.0	1377.9
26.45	1511.0	1377.4
26.46	1496.0	1377.0
26.47	1481.0	1376.6
26.48	1495.0	1376.1
26.49	1493.0	1375.7
26.5	1469.0	1375.3
26.51	1433.0	1374.8
26.52	1422.0	1374.4
26.53	1440.0	1374.0
26.54	1444.0	1373.6
26.55	1445.0	1373.1
26.56	1461.0	1372.7
26.57	1447.0	1372.3
26.58	1417.0	1371.9
26.59	1451.0	1371.4
26.6	1460.0	1371.0
26.61	1402.0	1370.6
26.62	1374.0	1370.2
26.63	1366.0	1369.7
26.64	1374.0	1369.3
26.65	1387.0	1368.9
26.66	1399.0	1368.5
26.67	1405.0	1368.1
26.68	1402.0	1367.6
26.69	1416.0	1367.2
26.7	1420.0	1366.8
26.71	1435.0	1366.4
26.72	1436.0	1366.0
26.73	1442.0	1365.5
26.74	1449.0	1365.1
26.75	1446.0	1364.7
26.76	1440.0	1364.3
26.77	1417.0	1363.9
26.78	1395.0	1363.5
26.79	1396.0	1363.1
26.8	1432.0	1362.6
26.81	1442.0	1362.2
26.82	1424.0	1361.8
26.83	1428.0	1361.4
26.84	1418.0	1361.0
26.85	1401.0	1360.6
26.86	1395.0	1360.2
26.87	1384.0	1359.8
26.88	1391.0	1359.4
26.89	1416.0	1359.0
26.9	1423.0	1358.5
26.91	1420.0	1358.1
26.92	1404.0	1357.7
26.93	1383.0	1357.3
26.94	1391.0	1356.9
26.95	1401.0	1356.5
26.96	1390.0	1356.1
26.97	1376.0	1355.7
26.98	1381.0	1355.3
26.99	1376.0	1354.9
27.0	1371.0	1354.5
27.01	1369.0	1354.1
27.02	1385.0	1353.7
27.03	1420.0	1353.3
27.04	1398.0	1352.9
27.05	1380.0	1352.5
27.06	1387.0	1352.1
27.07	1394.0	1351.7
27.08	1383.0	1351.3
27.09	1353.0	1350.9
27.1	1332.0	1350.5
27.11	1347.0	1350.1
27.12	1387.0	1349.7
27.13	1410.0	1349.3
27.14	1401.0	1348.9
27.15	1377.0	1348.5
27.16	1381.0	1348.1
27.17	1404.0	1347.7
27.18	1418.0	1347.3
27.19	1397.0	1346.9
27.2	1351.0	1346.5
27.21	1355.0	1346.1
27.22	1382.0	1345.7
27.23	1352.0	1345.3
27.24	1341.0	1344.9
27.25	1380.0	1344.5
27.26	1374.0	1344.1
27.27	1373.0	1343.7
27.28	1390.0	1343.4
27.29	1385.0	1343.0
27.3	1398.0	1342.6
27.31	1396.0	1342.2
27.32	1389.0	1341.8
27.33	1368.0	1341.4
27.34	1344.0	1341.0
27.35	1362.0	1340.6
27.36	1377.0	1340.2
27.37	1363.0	1339.8
27.38	1356.0	1339.4
27.39	1343.0	1339.0
27.4	1342.0	1338.6
27.41	1379.0	1338.3
27.42	1395.0	1337.9
27.43	1355.0	1337.5
27.44	1317.0	1337.1
27.45	1346.0	1336.7
27.46	1379.0	1336.3
27.47	1378.0	1335.9
27.48	1356.0	1335.5
27.49	1351.0	1335.1
27.5	1364.0	1334.8
27.51	1373.0	1334.4
27.52	1365.0	1334.0
27.53	1329.0	1333.6
27.54	1342.0	1333.2
27.55	1357.0	1332.8
27.56	1354.0	1332.4
27.57	1373.0	1332.0
27.58	1389.0	1331.6
27.59	1390.0	1331.3
27.6	1384.0	1330.9
27.61	1350.0	1330.5
27.62	1317.0	1330.1
27.63	1323.0	1329.7
27.64	1338.0	1329.3
27.65	1357.0	1328.9
27.66	1362.0	1328.6
27.67	1315.0	1328.2
27.68	1315.0	1327.8
27.69	1366.0	1327.4
27.7	1372.0	1327.0
27.71	1352.0	1326.6
27.72	1332.0	1326.2
27.73	1328.0	1325.8
27.74	1339.0	1325.5
27.75	1343.0	1325.1
27.76	1347.0	1324.7
27.77	1373.0	1324.3
27.78	1363.0	1323.9
27.79	1341.0	1323.5
27.8	1347.0	1323.1
27.81	1355.0	1322.8
27.82	1341.0	1322.4
27.83	1331.0	1322.0
27.84	1300.0	1321.6
27.85	1318.0	1321.2
27.86	1342.0	1320.8
27.87	1301.0	1320.4
27.88	1301.0	1320.1
27.89	1341.0	1319.7
27.9	1363.0	1319.3
27.91	1356.0	1318.9
27.92	1340.0	1318.5
27.93	1307.0	1318.1
27.94	1297.0	1317.7
27.95	1324.0	1317.4
27.96	1357.0	1317.0
27.97	1395.0	1316.6
27.98	1384.0	1316.2
27.99	1320.0	1315.8
28.0	1319.0	1315.4
28.01	1343.0	1315.0
28.02	1346.0	1314.7
28.03	1368.0	1314.3
28.04	1380.0	1313.9
28.05	1358.0	1313.5
28.06	1340.0	1313.1
28.07	1321.0	1312.7
28.08	1297.0	1312.3
28.09	1309.0	1311.9
28.1	1320.0	1311.6
28.11	1324.0	1311.2
28.12	1350.0	1310.8
28.13	1353.0	1310.4
28.14	1329.0	1310.0
28.15	1337.0	1309.6
28.16	1331.0	1309.2
28.17	1324.0	1308.8
28.18	1366.0	1308.5
28.19	1356.0	1308.1
28.2	1316.0	1307.7
28.21	1301.0	1307.3
28.22	1306.0	1306.9
28.23	1289.0	1306.5
28.24	1264.0	1306.1
28.25	1279.0	1305.7
28.26	1291.0	1305.4
28.27	1319.0	1305.0
28.28	1353.0	1304.6
28.29	1332.0	1304.2
28.3	1311.0	1303.8
28.31	1327.0	1303.4
28.32	1327.0	1303.0
28.33	1326.0	1302.6
28.34	1327.0	1302.3
28.35	1301.0	1301.9
28.36	1306.0	1301.5
28.37	1362.0	1301.1
28.38	1350.0	1300.7
28.39	1301.0	1300.3
28.4	1289.0	1299.9
28.41	1307.0	1299.5
28.42	1331.0	1299.1
28.43	1338.0	1298.8
28.44	1294.0	1298.4
28.45	1281.0	1298.0
28.46	1309.0	1297.6
28.47	1349.0	1297.2
28.48	1340.0	1296.8
28.49	1291.0	1296.4
28.5	1305.0	1296.0
28.51	1337.0	1295.6
28.52	1332.0	1295.3
28.53	1329.0	1294.9
28.54	1311.0	1294.5
28.55	1337.0	1294.1
28.56	1340.0	1293.7
28.57	1333.0	1293.3
28.58	1324.0	1292.9
28.59	1322.0	1292.5
28.6	1329.0	1292.1
28.61	1313.0	1291.8
28.62	1310.0	1291.4
28.63	1336.0	1291.0
28.64	1345.0	1290.6
28.65	1330.0	1290.2
28.66	1343.0	1289.8
28.67	1331.0	1289.4
28.68	1312.0	1289.0
28.69	1336.0	1288.6
28.7	1327.0	1288.3
28.71	1301.0	1287.9
28.72	1310.0	1287.5
28.73	1310.0	1287.1
28.74	1306.0	1286.7
28.75	1309.0	1286.3
28.76	1287.0	1285.9
28.77	1279.0	1285.5
28.78	1310.0	1285.1
28.79	1325.0	1284.8
28.8	1290.0	1284.4
28.81	1272.0	1284.0
28.82	1298.0	1283.6
28.83	1303.0	1283.2
28.84	1286.0	1282.8
28.85	1261.0	1282.4
28.86	1259.0	1282.0
28.87	1319.0	1281.6
28.88	1322.0	1281.3
28.89	1305.0	1280.9
28.9	1295.0	1280.5
28.91	1268.0	1280.1
28.92	1271.0	1279.7
28.93	1290.0	1279.3
28.94	1282.0	1278.9
28.95	1279.0	1278.5
28.96	1297.0	1278.1
28.97	1312.0	1277.7
28.98	1323.0	1277.4
28.99	1274.0	1277.0
29.0	1268.0	1276.6
29.01	1288.0	1276.2
29.02	1256.0	1275.8
29.03	1223.0	1275.4
29.04	1235.0	1275.0
29.05	1257.0	1274.6
29.06	1267.0	1274.2
29.07	1284.0	1273.9
29.08	1292.0	1273.5
29.09	1287.0	1273.1
29.1	1288.0	1272.7
29.11	1300.0	1272.3
29.12	1311.0	1271.9
29.13	1301.0	1271.5
29.14	1288.0	1271.1
29.15	1267.0	1270.7
29.16	1241.0	1270.4
29.17	1241.0	1270.0
29.18	1251.0	1269.6
29.19	1287.0	1269.2
29.2	1296.0	1268.8
29.21	1305.0	1268.4
29.22	1330.0	1268.0
29.23	1332.0	1267.6
29.24	1320.0	1267.2
29.25	1263.0	1266.9
29.26	1244.0	1266.5
29.27	1234.0	1266.1
29.28	1234.0	1265.7
29.29	1231.0	1265.3
29.3	1235.0	1264.9
29.31	1236.0	1264.5
29.32	1245.0	1264.1
29.33	1290.0	1263.7
29.34	1308.0	1263.4
29.35	1291.0	1263.0
29.36	1300.0	1262.6
29.37	1282.0	1262.2
29.38	1263.0	1261.8
29.39	1291.0	1261.4
29.4	1252.0	1261.0
29.41	1208.0	1260.6
29.42	1224.0	1260.2
29.43	1247.0	1259.9
29.44	1193.0	1259.5
29.45	1221.0	1259.1
29.46	1262.0	1258.7
29.47	1263.0	1258.3
29.48	1287.0	1257.9
29.49	1240.0	1257.5
29.5	1206.0	1257.1
29.51	1227.0	1256.7
29.52	1276.0	1256.4
29.53	1298.0	1256.0
29.54	1254.0	1255.6
29.55	1191.0	1255.2
29.56	1199.0	1254.8
29.57	1248.0	1254.4
29.58	1275.0	1254.0
29.59	1299.0	1253.6
29.6	1255.0	1253.3
29.61	1284.0	1252.9
29.62	1268.0	1252.5
29.63	1275.0	1252.1
29.64	1238.0	1251.7
29.65	1235.0	1251.3
29.66	1264.0	1250.9
29.67	1287.0	1250.5
29.68	1270.0	1250.1
29.69	1248.0	1249.8
29.7	1262.0	1249.4
29.71	1242.0	1249.0
29.72	1241.0	1248.6
29.73	1218.0	1248.2
29.74	1209.0	1247.8
29.75	1210.0	1247.4
29.76	1209.0	1247.0
29.77	1223.0	1246.7
29.78	1246.0	1246.3
29.79	1261.0	1245.9
29.8	1260.0	1245.5
29.81	1224.0	1245.1
29.82	1211.0	1244.7
29.83	1180.0	1244.3
29.84	1214.0	1244.0
29.85	1223.0	1243.6
29.86	1200.0	1243.2
29.87	1215.0	1242.8
29.88	1248.0	1242.4
29.89	1248.0	1242.0
29.9	1259.0	1241.6
29.91	1255.0	1241.2
29.92	1247.0	1240.9
29.93	1240.0	1240.5
29.94	1225.0	1240.1
29.95	1243.0	1239.7
29.96	1230.0	1239.3
29.97	1186.0	1238.9
29.98	1170.0	1238.5
29.99	1188.0	1238.2
30.0	1170.0	1237.8
30.01	1191.0	1237.4
30.02	1223.0	1237.0
30.03	1269.0	1236.6
30.04	1267.0	1236.2
30.05	1227.0	1235.8
30.06	1216.0	1235.5
30.07	1218.0	1235.1
30.08	1234.0	1234.7
30.09	1228.0	1234.3
30.1	1198.0	1233.9
30.11	1198.0	1233.5
30.12	1245.0	1233.1
30.13	1237.0	1232.8
30.14	1224.0	1232.4
30.15	1210.0	1232.0
30.16	1223.0	1231.6
30.17	1238.0	1231.2
30.18	1221.0	1230.8
30.19	1211.0	1230.4
30.2	1240.0	1230.1
30.21	1224.0	1229.7
30.22	1240.0	1229.3
30.23	1238.0	1228.9
30.24	1237.0	1228.5
30.25	1228.0	1228.1
30.26	1202.0	1227.8
30.27	1190.0	1227.4
30.28	1174.0	1227.0
30.29	1225.0	1226.6
30.3	1251.0	1226.2
30.31	1251.0	1225.8
30.32	1232.0	1225.4
30.33	1229.0	1225.1
30.34	1202.0	1224.7
30.35	1159.0	1224.3
30.36	1187.0	1223.9
30.37	1232.0	1223.5
30.38	1223.0	1223.1
30.39	1173.0	1222.8
30.4	1210.0	1222.4
30.41	1244.0	1222.0
30.42	1202.0	1221.6
30.43	1202.0	1221.2
30.44	1185.0	1220.8
30.45	1161.0	1220.5
30.46	1214.0	1220.1
30.47	1232.0	1219.7
30.48	1231.0	1219.3
30.49	1236.0	1218.9
30.5	1225.0	1218.6
30.51	1245.0	1218.2
30.52	1236.0	1217.8
30.53	1227.0	1217.4
30.54	1188.0	1217.0
30.55	1209.0	1216.6
30.56	1230.0	1216.3
30.57	1229.0	1215.9
30.58	1243.0	1215.5
30.59	1248.0	1215.1
30.6	1257.0	1214.7
30.61	1220.0	1214.4
30.62	1200.0	1214.0
30.63	1190.0	1213.6
30.64	1237.0	1213.2
30.65	1237.0	1212.8
30.66	1218.0	1212.4
30.67	1224.0	1212.1
30.68	1243.0	1211.7
30.69	1249.0	1211.3
30.7	1211.0	1210.9
30.71	1214.0	1210.5
30.72	1196.0	1210.2
30.73	1195.0	1209.8
30.74	1180.0	1209.4
30.75	1215.0	1209.0
30.76	1198.0	1208.6
30.77	1219.0	1208.3
30.78	1248.0	1207.9
30.79	1228.0	1207.5
30.8	1217.0	1207.1
30.81	1210.0	1206.7
30.82	1192.0	1206.4
30.83	1224.0	1206.0
30.84	1204.0	1205.6
30.85	1164.0	1205.2
30.86	1162.0	1204.9
30.87	1189.0	1204.5
30.88	1209.0	1204.1
30.89	1265.0	1203.7
30.9	1196.0	1203.3
30.91	1201.0	1203.0
30.92	1200.0	1202.6
30.93	1167.0	1202.2
30.94	1208.0	1201.8
30.95	1204.0	1201.5
30.96	1198.0	1201.1
30.97	1192.0	1200.7
30.98	1191.0	1200.3
30.99	1181.0	1199.9
31.0	1158.0	1199.6
31.01	1172.0	1199.2
31.02	1197.0	1198.8
31.03	1173.0	1198.4
31.04	1200.0	1198.1
31.05	1209.0	1197.7
31.06	1191.0	1197.3
31.07	1198.0	1196.9
31.08	1199.0	1196.6
31.09	1203.0	1196.2
31.1	1182.0	1195.8
31.11	1241.0	1195.4
31.12	1229.0	1195.0
31.13	1175.0	1194.7
31.14	1153.0	1194.3
31.15	1127.0	1193.9
31.16	1174.0	1193.5
31.17	1200.0	1193.2
31.18	1169.0	1192.8
31.19	1176.0	1192.4
31.2	1210.0	1192.0
31.21	1219.0	1191.7
31.22	1150.0	1191.3
31.23	1163.0	1190.9
31.24	1145.0	1190.6
31.25	1156.0	1190.2
31.26	1195.0	1189.8
31.27	1203.0	1189.4
31.28	1193.0	1189.1
31.29	1194.0	1188.7
31.3	1160.0	1188.3
31.31	1173.0	1187.9
31.32	1135.0	1187.6
31.33	1176.0	1187.2
31.34	1222.0	1186.8
31.35	1223.0	1186.4
31.36	1178.0	1186.1
31.37	1147.0	1185.7
31.38	1128.0	1185.3
31.39	1125.0	1185.0
31.4	1185.0	1184.6
31.41	1198.0	1184.2
31.42	1196.0	1183.8
31.43	1170.0	1183.5
31.44	1203.0	1183.1
31.45	1222.0	1182.7
31.46	1177.0	1182.4
31.47	1147.0	1182.0
31.48	1137.0	1181.6
31.49	1171.0	1181.2
31.5	1132.0	1180.9
31.51	1158.0	1180.5
31.52	1173.0	1180.1
31.53	1190.0	1179.8
31.54	1188.0	1179.4
31.55	1159.0	1179.0
31.56	1219.0	1178.7
31.57	1203.0	1178.3
31.58	1196.0	1177.9
31.59	1201.0	1177.5
31.6	1183.0	1177.2
31.61	1172.0	1176.8
31.62	1146.0	1176.4
31.63	1172.0	1176.1
31.64	1148.0	1175.7
31.65	1146.0	1175.3
31.66	1165.0	1175.0
31.67	1153.0	1174.6
31.68	1187.0	1174.2
31.69	1184.0	1173.9
31.7	1220.0	1173.5
31.71	1181.0	1173.1
31.72	1180.0	1172.8
31.73	1215.0	1172.4
31.74	1184.0	1172.0
31.75	1176.0	1171.7
31.76	1192.0	1171.3
31.77	1187.0	1170.9
31.78	1154.0	1170.6
31.79	1172.0	1170.2
31.8	1236.0	1169.8
31.81	1133.0	1169.5
31.82	1140.0	1169.1
31.83	1185.0	1168.7
31.84	1182.0	1168.4
31.85	1212.0	1168.0
31.86	1216.0	1167.6
31.87	1193.0	1167.3
31.88	1185.0	1166.9
31.89	1186.0	1166.6
31.9	1182.0	1166.2
31.91	1164.0	1165.8
31.92	1205.0	1165.5
31.93	1204.0	1165.1
31.94	1154.0	1164.7
31.95	1155.0	1164.4
31.96	1186.0	1164.0
31.97	1173.0	1163.6
31.98	1161.0	1163.3
31.99	1196.0	1162.9
32.0	1179.0	1162.6
32.01	1199.0	1162.2
32.02	1161.0	1161.8
32.03	1163.0	1161.5
32.04	1187.0	1161.1
32.05	1253.0	1160.8
32.06	1252.0	1160.4
32.07	1223.0	1160.0
32.08	1215.0	1159.7
32.09	1199.0	1159.3
32.1	1230.0	1158.9
32.11	1222.0	1158.6
32.12	1252.0	1158.2
32.13	1238.0	1157.9
32.14	1204.0	1157.5
32.15	1171.0	1157.1
32.16	1199.0	1156.8
32.17	1207.0	1156.4
32.18	1225.0	1156.1
32.19	1183.0	1155.7
32.2	1199.0	1155.4
32.21	1246.0	1155.0
32.22	1221.0	1154.6
32.23	1220.0	1154.3
32.24	1235.0	1153.9
32.25	1207.0	1153.6
32.26	1228.0	1153.2
32.27	1242.0	1152.8
32.28	1226.0	1152.5
32.29	1271.0	1152.1
32.3	1264.0	1151.8
32.31	1264.0	1151.4
32.32	1301.0	1151.1
32.33	1310.0	1150.7
32.34	1247.0	1150.4
32.35	1290.0	1150.0
32.36	1304.0	1149.6
32.37	1349.0	1149.3
32.38	1308.0	1148.9
32.39	1365.0	1148.6
32.4	1362.0	1148.2
32.41	1337.0	1147.9
32.42	1379.0	1147.5
32.43	1407.0	1147.2
32.44	1366.0	1146.8
32.45	1373.0	1146.5
32.46	1395.0	1146.1
32.47	1438.0	1145.7
32.48	1470.0	1145.4
32.49	1490.0	1145.0
32.5	1559.0	1144.7
32.51	1594.0	1144.3
32.52	1644.0	1144.0
32.53	1652.0	1143.6
32.54	1644.0	1143.3
32.55	1736.0	1142.9
32.56	1796.0	1142.6
32.57	1822.0	1142.2
32.58	1851.0	1141.9
32.59	1932.0	1141.5
32.6	1943.0	1141.2
32.61	2001.0	1140.8
32.62	2106.0	1140.5
32.63	2120.0	1140.1
32.64	2143.0	1139.8
32.65	2176.0	1139.4
32.66	2187.0	1139.1
32.67	2166.0	1138.7
32.68	2179.0	1138.4
32.69	2174.0	1138.0
32.7	2138.0	1137.7
32.71	2133.0	1137.3
32.72	2078.0	1137.0
32.73	2099.0	1136.6
32.74	2026.0	1136.3
32.75	1928.0	1135.9
32.76	1905.0	1135.6
32.77	1902.0	1135.2
32.78	1828.0	1134.9
32.79	1755.0	1134.6
32.8	1652.0	1134.2
32.81	1680.0	1133.9
32.82	1671.0	1133.5
32.83	1624.0	1133.2
32.84	1531.0	1132.8
32.85	1542.0	1132.5
32.86	1539.0	1132.1
32.87	1478.0	1131.8
32.88	1400.0	1131.4
32.89	1360.0	1131.1
32.9	1381.0	1130.8
32.91	1361.0	1130.4
32.92	1366.0	1130.1
32.93	1343.0	1129.7
32.94	1329.0	1129.4
32.95	1328.0	1129.0
32.96	1354.0	1128.7
32.97	1329.0	1128.4
32.98	1322.0	1128.0
32.99	1271.0	1127.7
33.0	1269.0	1127.3
33.01	1239.0	1127.0
33.02	1252.0	1126.7
33.03	1298.0	1126.3
33.04	1286.0	1126.0
33.05	1249.0	1125.6
33.06	1225.0	1125.3
33.07	1227.0	1124.9
33.08	1222.0	1124.6
33.09	1207.0	1124.3
33.1	1196.0	1123.9
33.11	1174.0	1123.6
33.12	1191.0	1123.3
33.13	1203.0	1122.9
33.14	1185.0	1122.6
33.15	1213.0	1122.2
33.16	1228.0	1121.9
33.17	1220.0	1121.6
33.18	1214.0	1121.2
33.19	1207.0	1120.9
33.2	1203.0	1120.6
33.21	1188.0	1120.2
33.22	1172.0	1119.9
33.23	1147.0	1119.5
33.24	1119.0	1119.2
33.25	1145.0	1118.9
33.26	1156.0	1118.5
33.27	1153.0	1118.2
33.28	1149.0	1117.9
33.29	1160.0	1117.5
33.3	1149.0	1117.2
33.31	1151.0	1116.9
33.32	1157.0	1116.5
33.33	1166.0	1116.2
33.34	1137.0	1115.9
33.35	1139.0	1115.5
33.36	1157.0	1115.2
33.37	1133.0	1114.9
33.38	1106.0	1114.5
33.39	1137.0	1114.2
33.4	1134.0	1113.9
33.41	1145.0	1113.5
33.42	1139.0	1113.2
33.43	1122.0	1112.9
33.44	1133.0	1112.5
33.45	1127.0	1112.2
33.46	1146.0	1111.9
33.47	1174.0	1111.6
33.48	1162.0	1111.2
33.49	1161.0	1110.9
33.5	1146.0	1110.6
33.51	1120.0	1110.2
33.52	1118.0	1109.9
33.53	1103.0	1109.6
33.54	1092.0	1109.3
33.55	1096.0	1108.9
33.56	1108.0	1108.6
33.57	1128.0	1108.3
33.58	1166.0	1107.9
33.59	1159.0	1107.6
33.6	1131.0	1107.3
33.61	1131.0	1107.0
33.62	1128.0	1106.6
33.63	1124.0	1106.3
33.64	1120.0	1106.0
33.65	1118.0	1105.7
33.66	1137.0	1105.3
33.67	1134.0	1105.0
33.68	1160.0	1104.7
33.69	1157.0	1104.4
33.7	1145.0	1104.0
33.71	1132.0	1103.7
33.72	1121.0	1103.4
33.73	1106.0	1103.1
33.74	1134.0	1102.8
33.75	1129.0	1102.4
33.76	1090.0	1102.1
33.77	1103.0	1101.8
33.78	1127.0	1101.5
33.79	1127.0	1101.1
33.8	1121.0	1100.8
33.81	1118.0	1100.5
33.82	1104.0	1100.2
33.83	1073.0	1099.9
33.84	1101.0	1099.5
33.85	1110.0	1099.2
33.86	1125.0	1098.9
33.87	1144.0	1098.6
33.88	1143.0	1098.3
33.89	1099.0	1098.0
33.9	1104.0	1097.6
33.91	1124.0	1097.3
33.92	1119.0	1097.0
33.93	1131.0	1096.7
33.94	1131.0	1096.4
33.95	1105.0	1096.0
33.96	1083.0	1095.7
33.97	1111.0	1095.4
33.98	1134.0	1095.1
33.99	1150.0	1094.8
34.0	1143.0	1094.5
34.01	1100.0	1094.2
34.02	1096.0	1093.8
34.03	1126.0	1093.5
34.04	1085.0	1093.2
34.05	1073.0	1092.9
34.06	1082.0	1092.6
34.07	1148.0	1092.3
34.08	1173.0	1092.0
34.09	1145.0	1091.6
34.1	1122.0	1091.3
34.11	1089.0	1091.0
34.12	1089.0	1090.7
34.13	1121.0	1090.4
34.14	1113.0	1090.1
34.15	1111.0	1089.8
34.16	1128.0	1089.5
34.17	1147.0	1089.2
34.18	1108.0	1088.9
34.19	1109.0	1088.5
34.2	1128.0	1088.2
34.21	1112.0	1087.9
34.22	1071.0	1087.6
34.23	1087.0	1087.3
34.24	1109.0	1087.0
34.25	1142.0	1086.7
34.26	1109.0	1086.4
34.27	1079.0	1086.1
34.28	1106.0	1085.8
34.29	1104.0	1085.5
34.3	1096.0	1085.2
34.31	1094.0	1084.9
34.32	1118.0	1084.5
34.33	1091.0	1084.2
34.34	1104.0	1083.9
34.35	1102.0	1083.6
34.36	1095.0	1083.3
34.37	1092.0	1083.0
34.38	1087.0	1082.7
34.39	1090.0	1082.4
34.4	1117.0	1082.1
34.41	1117.0	1081.8
34.42	1106.0	1081.5
34.43	1117.0	1081.2
34.44	1089.0	1080.9
34.45	1083.0	1080.6
34.46	1065.0	1080.3
34.47	1082.0	1080.0
34.48	1086.0	1079.7
34.49	1092.0	1079.4
34.5	1083.0	1079.1
34.51	1101.0	1078.8
34.52	1104.0	1078.5
34.53	1117.0	1078.2
34.54	1110.0	1077.9
34.55	1079.0	1077.6
34.56	1077.0	1077.3
34.57	1114.0	1077.0
34.58	1102.0	1076.7
34.59	1074.0	1076.4
34.6	1090.0	1076.1
34.61	1083.0	1075.8
34.62	1071.0	1075.5
34.63	1081.0	1075.2
34.64	1064.0	1074.9
34.65	1065.0	1074.7
34.66	1110.0	1074.4
34.67	1131.0	1074.1
34.68	1128.0	1073.8
34.69	1107.0	1073.5
34.7	1141.0	1073.2
34.71	1139.0	1072.9
34.72	1107.0	1072.6
34.73	1106.0	1072.3
34.74	1101.0	1072.0
34.75	1085.0	1071.7
34.76	1071.0	1071.4
34.77	1066.0	1071.1
34.78	1074.0	1070.9
34.79	1107.0	1070.6
34.8	1130.0	1070.3
34.81	1143.0	1070.0
34.82	1124.0	1069.7
34.83	1101.0	1069.4
34.84	1090.0	1069.1
34.85	1111.0	1068.8
34.86	1116.0	1068.5
34.87	1133.0	1068.3
34.88	1120.0	1068.0
34.89	1108.0	1067.7
34.9	1081.0	1067.4
34.91	1087.0	1067.1
34.92	1086.0	1066.8
34.93	1048.0	1066.5
34.94	1051.0	1066.3
34.95	1097.0	1066.0
34.96	1102.0	1065.7
34.97	1106.0	1065.4
34.98	1124.0	1065.1
34.99	1117.0	1064.8
35.0	1112.0	1064.6
35.01	1138.0	1064.3
35.02	1143.0	1064.0
35.03	1104.0	1063.7
35.04	1076.0	1063.4
35.05	1086.0	1063.1
35.06	1110.0	1062.9
35.07	1127.0	1062.6
35.08	1108.0	1062.3
35.09	1089.0	1062.0
35.1	1090.0	1061.8
35.11	1099.0	1061.5
35.12	1106.0	1061.2
35.13	1115.0	1060.9
35.14	1125.0	1060.6
35.15	1104.0	1060.4
35.16	1086.0	1060.1
35.17	1074.0	1059.8
35.18	1097.0	1059.5
35.19	1110.0	1059.3
35.2	1088.0	1059.0
35.21	1097.0	1058.7
35.22	1130.0	1058.4
35.23	1122.0	1058.2
35.24	1108.0	1057.9
35.25	1108.0	1057.6
35.26	1105.0	1057.3
35.27	1100.0	1057.1
35.28	1087.0	1056.8
35.29	1111.0	1056.5
35.3	1146.0	1056.2
35.31	1119.0	1056.0
35.32	1078.0	1055.7
35.33	1097.0	1055.4
35.34	1108.0	1055.2
35.35	1121.0	1054.9
35.36	1122.0	1054.6
35.37	1117.0	1054.3
35.38	1135.0	1054.1
35.39	1126.0	1053.8
35.4	1109.0	1053.5
35.41	1093.0	1053.3
35.42	1122.0	1053.0
35.43	1148.0	1052.7
35.44	1162.0	1052.5
35.45	1168.0	1052.2
35.46	1139.0	1051.9
35.47	1109.0	1051.7
35.48	1103.0	1051.4
35.49	1113.0	1051.1
35.5	1105.0	1050.9
35.51	1111.0	1050.6
35.52	1130.0	1050.4
35.53	1137.0	1050.1
35.54	1156.0	1049.8
35.55	1145.0	1049.6
35.56	1136.0	1049.3
35.57	1144.0	1049.0
35.58	1129.0	1048.8
35.59	1119.0	1048.5
35.6	1123.0	1048.3
35.61	1130.0	1048.0
35.62	1162.0	1047.7
35.63	1191.0	1047.5
35.64	1195.0	1047.2
35.65	1192.0	1047.0
35.66	1196.0	1046.7
35.67	1211.0	1046.4
35.68	1185.0	1046.2
35.69	1161.0	1045.9
35.7	1185.0	1045.7
35.71	1175.0	1045.4
35.72	1217.0	1045.2
35.73	1280.0	1044.9
35.74	1260.0	1044.6
35.75	1260.0	1044.4
35.76	1261.0	1044.1
35.77	1279.0	1043.9
35.78	1291.0	1043.6
35.79	1289.0	1043.4
35.8	1289.0	1043.1
35.81	1295.0	1042.9
35.82	1304.0	1042.6
35.83	1327.0	1042.4
35.84	1342.0	1042.1
35.85	1357.0	1041.9
35.86	1387.0	1041.6
35.87	1412.0	1041.3
35.88	1438.0	1041.1
35.89	1494.0	1040.8
35.9	1539.0	1040.6
35.91	1533.0	1040.3
35.92	1548.0	1040.1
35.93	1597.0	1039.9
35.94	1661.0	1039.6
35.95	1733.0	1039.4
35.96	1831.0	1039.1
35.97	1924.0	1038.9
35.98	2018.0	1038.6
35.99	2132.0	1038.4
36.0	2264.0	1038.1
36.01	2399.0	1037.9
36.02	2485.0	1037.6
36.03	2613.0	1037.4
36.04	2831.0	1037.1
36.05	3041.0	1036.9
36.06	3256.0	1036.7
36.07	3442.0	1036.4
36.08	3568.0	1036.2
36.09	3678.0	1035.9
36.1	3753.0	1035.7
36.11	3782.0	1035.4
36.12	3742.0	1035.2
36.13	3691.0	1035.0
36.14	3601.0	1034.7
36.15	3445.0	1034.5
36.16	3336.0	1034.2
36.17	3251.0	1034.0
36.18	3139.0	1033.8
36.19	2980.0	1033.5
36.2	2860.0	1033.3
36.21	2726.0	1033.0
36.22	2501.0	1032.8
36.23	2378.0	1032.6
36.24	2302.0	1032.3
36.25	2167.0	1032.1
36.26	2016.0	1031.9
36.27	1853.0	1031.6
36.28	1729.0	1031.4
36.29	1675.0	1031.2
36.3	1628.0	1030.9
36.31	1568.0	1030.7
36.32	1541.0	1030.5
36.33	1535.0	1030.2
36.34	1484.0	1030.0
36.35	1402.0	1029.8
36.36	1380.0	1029.5
36.37	1394.0	1029.3
36.38	1361.0	1029.1
36.39	1332.0	1028.8
36.4	1321.0	1028.6
36.41	1323.0	1028.4
36.42	1320.0	1028.1
36.43	1291.0	1027.9
36.44	1263.0	1027.7
36.45	1256.0	1027.5
36.46	1263.0	1027.2
36.47	1245.0	1027.0
36.48	1233.0	1026.8
36.49	1209.0	1026.5
36.5	1195.0	1026.3
36.51	1222.0	1026.1
36.52	1222.0	1025.9
36.53	1185.0	1025.6
36.54	1164.0	1025.4
36.55	1177.0	1025.2
36.56	1186.0	1025.0
36.57	1194.0	1024.8
36.58	1187.0	1024.5
36.59	1170.0	1024.3
36.6	1177.0	1024.1
36.61	1168.0	1023.9
36.62	1179.0	1023.6
36.63	1208.0	1023.4
36.64	1199.0	1023.2
36.65	1188.0	1023.0
36.66	1174.0	1022.8
36.67	1166.0	1022.5
36.68	1175.0	1022.3
36.69	1173.0	1022.1
36.7	1168.0	1021.9
36.71	1175.0	1021.7
36.72	1204.0	1021.4
36.73	1213.0	1021.2
36.74	1198.0	1021.0
36.75	1211.0	1020.8
36.76	1243.0	1020.6
36.77	1235.0	1020.4
36.78	1232.0	1020.1
36.79	1235.0	1019.9
36.8	1242.0	1019.7
36.81	1266.0	1019.5
36.82	1254.0	1019.3
36.83	1246.0	1019.1
36.84	1214.0	1018.9
36.85	1214.0	1018.7
36.86	1245.0	1018.4
36.87	1244.0	1018.2
36.88	1239.0	1018.0
36.89	1244.0	1017.8
36.9	1245.0	1017.6
36.91	1244.0	1017.4
36.92	1247.0	1017.2
36.93	1241.0	1017.0
36.94	1227.0	1016.8
36.95	1208.0	1016.6
36.96	1198.0	1016.3
36.97	1190.0	1016.1
36.98	1166.0	1015.9
36.99	1163.0	1015.7
37.0	1202.0	1015.5
37.01	1209.0	1015.3
37.02	1179.0	1015.1
37.03	1158.0	1014.9
37.04	1144.0	1014.7
37.05	1164.0	1014.5
37.06	1198.0	1014.3
37.07	1180.0	1014.1
37.08	1157.0	1013.9
37.09	1164.0	1013.7
37.1	1178.0	1013.5
37.11	1173.0	1013.3
37.12	1155.0	1013.1
37.13	1155.0	1012.9
37.14	1163.0	1012.7
37.15	1148.0	1012.5
37.16	1134.0	1012.3
37.17	1133.0	1012.1
37.18	1134.0	1011.9
37.19	1161.0	1011.7
37.2	1180.0	1011.5
37.21	1154.0	1011.3
37.22	1130.0	1011.1
37.23	1133.0	1010.9
37.24	1143.0	1010.7
37.25	1158.0	1010.5
37.26	1143.0	1010.3
37.27	1095.0	1010.1
37.28	1079.0	1009.9
37.29	1120.0	1009.7
37.3	1139.0	1009.5
37.31	1148.0	1009.3
37.32	1192.0	1009.2
37.33	1204.0	1009.0
37.34	1204.0	1008.8
37.35	1207.0	1008.6
37.36	1190.0	1008.4
37.37	1188.0	1008.2
37.38	1185.0	1008.0
37.39	1177.0	1007.8
37.4	1173.0	1007.6
37.41	1190.0	1007.4
37.42	1224.0	1007.3
37.43	1259.0	1007.1
37.44	1267.0	1006.9
37.45	1246.0	1006.7
37.46	1293.0	1006.5
37.47	1333.0	1006.3
37.48	1332.0	1006.1
37.49	1345.0	1005.9
37.5	1370.0	1005.8
37.51	1428.0	1005.6
37.52	1478.0	1005.4
37.53	1471.0	1005.2
37.54	1484.0	1005.0
37.55	1521.0	1004.8
37.56	1533.0	1004.7
37.57	1569.0	1004.5
37.58	1601.0	1004.3
37.59	1608.0	1004.1
37.6	1639.0	1003.9
37.61	1705.0	1003.8
37.62	1759.0	1003.6
37.63	1786.0	1003.4
37.64	1790.0	1003.2
37.65	1792.0	1003.0
37.66	1858.0	1002.9
37.67	1910.0	1002.7
37.68	1927.0	1002.5
37.69	1975.0	1002.3
37.7	1999.0	1002.2
37.71	2030.0	1002.0
37.72	2100.0	1001.8
37.73	2133.0	1001.6
37.74	2141.0	1001.5
37.75	2159.0	1001.3
37.76	2202.0	1001.1
37.77	2187.0	1000.9
37.78	2109.0	1000.8
37.79	2060.0	1000.6
37.8	2004.0	1000.4
37.81	1929.0	1000.2
37.82	1869.0	1000.1
37.83	1828.0	999.9
37.84	1824.0	999.7
37.85	1783.0	999.6
37.86	1716.0	999.4
37.87	1678.0	999.2
37.88	1575.0	999.1
37.89	1518.0	998.9
37.9	1487.0	998.7
37.91	1447.0	998.6
37.92	1396.0	998.4
37.93	1345.0	998.2
37.94	1327.0	998.1
37.95	1341.0	997.9
37.96	1318.0	997.7
37.97	1247.0	997.6
37.98	1220.0	997.4
37.99	1190.0	997.2
38.0	1202.0	997.1
38.01	1226.0	996.9
38.02	1189.0	996.8
38.03	1162.0	996.6
38.04	1175.0	996.4
38.05	1170.0	996.3
38.06	1161.0	996.1
38.07	1125.0	996.0
38.08	1134.0	995.8
38.09	1151.0	995.6
38.1	1116.0	995.5
38.11	1109.0	995.3
38.12	1113.0	995.2
38.13	1109.0	995.0
38.14	1122.0	994.8
38.15	1135.0	994.7
38.16	1088.0	994.5
38.17	1104.0	994.4
38.18	1125.0	994.2
38.19	1091.0	994.1
38.2	1083.0	993.9
38.21	1116.0	993.8
38.22	1139.0	993.6
38.23	1114.0	993.5
38.24	1085.0	993.3
38.25	1095.0	993.2
38.26	1121.0	993.0
38.27	1124.0	992.9
38.28	1113.0	992.7
38.29	1083.0	992.6
38.3	1103.0	992.4
38.31	1099.0	992.3
38.32	1103.0	992.1
38.33	1101.0	992.0
38.34	1107.0	991.8
38.35	1135.0	991.7
38.36	1131.0	991.5
38.37	1098.0	991.4
38.38	1083.0	991.2
38.39	1095.0	991.1
38.4	1080.0	990.9
38.41	1069.0	990.8
38.42	1080.0	990.6
38.43	1074.0	990.5
38.44	1051.0	990.4
38.45	1037.0	990.2
38.46	1045.0	990.1
38.47	1076.0	989.9
38.48	1110.0	989.8
38.49	1127.0	989.7
38.5	1122.0	989.5
38.51	1096.0	989.4
38.52	1057.0	989.2
38.53	1045.0	989.1
38.54	1069.0	989.0
38.55	1096.0	988.8
38.56	1064.0	988.7
38.57	1086.0	988.5
38.58	1072.0	988.4
38.59	1112.0	988.3
38.6	1120.0	988.1
38.61	1083.0	988.0
38.62	1066.0	987.9
38.63	1064.0	987.7
38.64	1083.0	987.6
38.65	1107.0	987.5
38.66	1076.0	987.3
38.67	1068.0	987.2
38.68	1097.0	987.1
38.69	1080.0	986.9
38.7	1064.0	986.8
38.71	1068.0	986.7
38.72	1066.0	986.6
38.73	1052.0	986.4
38.74	1040.0	986.3
38.75	1038.0	986.2
38.76	1054.0	986.0
38.77	1076.0	985.9
38.78	1072.0	985.8
38.79	1066.0	985.7
38.8	1076.0	985.5
38.81	1038.0	985.4
38.82	1004.0	985.3
38.83	1033.0	985.2
38.84	1053.0	985.0
38.85	1042.0	984.9
38.86	1029.0	984.8
38.87	1034.0	984.7
38.88	1057.0	984.5
38.89	1068.0	984.4
38.9	1072.0	984.3
38.91	1061.0	984.2
38.92	1046.0	984.1
38.93	1044.0	983.9
38.94	1043.0	983.8
38.95	1023.0	983.7
38.96	1019.0	983.6
38.97	1057.0	983.5
38.98	1043.0	983.3
38.99	1024.0	983.2
39.0	1017.0	983.1
39.01	1044.0	983.0
39.02	1084.0	982.9
39.03	1073.0	982.8
39.04	1034.0	982.6
39.05	1031.0	982.5
39.06	1038.0	982.4
39.07	1063.0	982.3
39.08	1070.0	982.2
39.09	1023.0	982.1
39.1	1021.0	982.0
39.11	1026.0	981.9
39.12	1035.0	981.8
39.13	1030.0	981.6
39.14	1048.0	981.5
39.15	1077.0	981.4
39.16	1032.0	981.3
39.17	1052.0	981.2
39.18	1022.0	981.1
39.19	1021.0	981.0
39.2	1026.0	980.9
39.21	1039.0	980.8
39.22	1051.0	980.7
39.23	1026.0	980.6
39.24	1026.0	980.5
39.25	1003.0	980.4
39.26	1018.0	980.3
39.27	1065.0	980.1
39.28	1033.0	980.0
39.29	997.0	979.9
39.3	1006.0	979.8
39.31	1040.0	979.7
39.32	1062.0	979.6
39.33	1071.0	979.5
39.34	1079.0	979.4
39.35	1051.0	979.3
39.36	1065.0	979.2
39.37	1087.0	979.1
39.38	1066.0	979.0
39.39	1071.0	978.9
39.4	1015.0	978.8
39.41	1039.0	978.8
39.42	1047.0	978.7
39.43	1017.0	978.6
39.44	1018.0	978.5
39.45	1012.0	978.4
39.46	1008.0	978.3
39.47	1034.0	978.2
39.48	1060.0	978.1
39.49	1046.0	978.0
39.5	1031.0	977.9
39.51	1019.0	977.8
39.52	1016.0	977.7
39.53	1053.0	977.6
39.54	1055.0	977.5
39.55	1073.0	977.5
39.56	1058.0	977.4
39.57	1035.0	977.3
39.58	1006.0	977.2
39.59	1004.0	977.1
39.6	1018.0	977.0
39.61	1036.0	976.9
39.62	1024.0	976.8
39.63	1024.0	976.8
39.64	1019.0	976.7
39.65	1025.0	976.6
39.66	1017.0	976.5
39.67	1055.0	976.4
39.68	1094.0	976.3
39.69	1051.0	976.3
39.7	1043.0	976.2
39.71	1038.0	976.1
39.72	1029.0	976.0
39.73	1048.0	975.9
39.74	1051.0	975.8
39.75	1044.0	975.8
39.76	1052.0	975.7
39.77	1087.0	975.6
39.78	1050.0	975.5
39.79	1029.0	975.5
39.8	1048.0	975.4
39.81	1049.0	975.3
39.82	1042.0	975.2
39.83	1038.0	975.1
39.84	1025.0	975.1
39.85	1007.0	975.0
39.86	1035.0	974.9
39.87	1051.0	974.8
39.88	1039.0	974.8
39.89	1057.0	974.7
39.9	1031.0	974.6
39.91	1054.0	974.6
39.92	1046.0	974.5
39.93	1025.0	974.4
39.94	1050.0	974.3
39.95	1063.0	974.3
39.96	1035.0	974.2
39.97	1031.0	974.1
39.98	1033.0	974.1
39.99	1041.0	974.0
40.0	1006.0	973.9
40.01	1020.0	973.9
40.02	1043.0	973.8
40.03	1027.0	973.7
40.04	1032.0	973.7
40.05	1051.0	973.6
40.06	1045.0	973.5
40.07	1026.0	973.5
40.08	1013.0	973.4
40.09	1015.0	973.4
40.1	1020.0	973.3
40.11	1022.0	973.2
40.12	1014.0	973.2
40.13	1023.0	973.1
40.14	1065.0	973.1
40.15	1048.0	973.0
40.16	1015.0	972.9
40.17	1014.0	972.9
40.18	1023.0	972.8
40.19	1008.0	972.8
40.2	988.0	972.7
40.21	987.0	972.7
40.22	997.0	972.6
40.23	967.0	972.5
40.24	974.0	972.5
40.25	974.0	972.4
40.26	994.0	972.4
40.27	1002.0	972.3
40.28	1032.0	972.3
40.29	1066.0	972.2
40.3	1093.0	972.2
40.31	1079.0	972.1
40.32	1029.0	972.1
40.33	1019.0	972.0
40.34	1028.0	972.0
40.35	1002.0	971.9
40.36	1010.0	971.9
40.37	994.0	971.8
40.38	1028.0	971.8
40.39	1007.0	971.7
40.4	1035.0	971.7
40.41	1022.0	971.6
40.42	1005.0	971.6
40.43	1024.0	971.5
40.44	1021.0	971.5
40.45	1044.0	971.5
40.46	1035.0	971.4
40.47	1059.0	971.4
40.48	1061.0	971.3
40.49	1053.0	971.3
40.5	1032.0	971.2
40.51	1009.0	971.2
40.52	1015.0	971.2
40.53	1004.0	971.1
40.54	1005.0	971.1
40.55	1046.0	971.0
40.56	1065.0	971.0
40.57	1040.0	971.0
40.58	1050.0	970.9
40.59	1021.0	970.9
40.6	1016.0	970.9
40.61	1065.0	970.8
40.62	1065.0	970.8
40.63	1049.0	970.8
40.64	1033.0	970.7
40.65	1081.0	970.7
40.66	1023.0	970.7
40.67	1020.0	970.6
40.68	1033.0	970.6
40.69	992.0	970.6
40.7	1038.0	970.5
40.71	1051.0	970.5
40.72	1051.0	970.5
40.73	1032.0	970.4
40.74	1049.0	970.4
40.75	1041.0	970.4
40.76	1010.0	970.3
40.77	1010.0	970.3
40.78	1025.0	970.3
40.79	1027.0	970.3
40.8	1024.0	970.2
40.81	1048.0	970.2
40.82	1061.0	970.2
40.83	1036.0	970.2
40.84	1009.0	970.1
40.85	1038.0	970.1
40.86	1061.0	970.1
40.87	1040.0	970.1
40.88	1035.0	970.0
40.89	1067.0	970.0
40.9	1063.0	970.0
40.91	1025.0	970.0
40.92	1046.0	969.9
40.93	1040.0	969.9
40.94	1045.0	969.9
40.95	1058.0	969.9
40.96	1038.0	969.9
40.97	1007.0	969.8
40.98	1012.0	969.8
40.99	1057.0	969.8
41.0	1089.0	969.8
41.01	1074.0	969.8
41.02	1039.0	969.8
41.03	1036.0	969.7
41.04	1041.0	969.7
41.05	1060.0	969.7
41.06	1076.0	969.7
41.07	1089.0	969.7
41.08	1069.0	969.7
41.09	1064.0	969.6
41.1	1077.0	969.6
41.11	1093.0	969.6
41.12	1103.0	969.6
41.13	1084.0	969.6
41.14	1088.0	969.6
41.15	1077.0	969.6
41.16	1065.0	969.6
41.17	1054.0	969.5
41.18	1103.0	969.5
41.19	1135.0	969.5
41.2	1112.0	969.5
41.21	1114.0	969.5
41.22	1135.0	969.5
41.23	1114.0	969.5
41.24	1113.0	969.5
41.25	1091.0	969.5
41.26	1096.0	969.5
41.27	1079.0	969.5
41.28	1121.0	969.5
41.29	1124.0	969.5
41.3	1159.0	969.4
41.31	1190.0	969.4
41.32	1168.0	969.4
41.33	1192.0	969.4
41.34	1219.0	969.4
41.35	1230.0	969.4
41.36	1226.0	969.4
41.37	1191.0	969.4
41.38	1203.0	969.4
41.39	1214.0	969.4
41.4	1250.0	969.4
41.41	1230.0	969.4
41.42	1190.0	969.4
41.43	1192.0	969.4
41.44	1194.0	969.4
41.45	1179.0	969.4
41.46	1207.0	969.4
41.47	1205.0	969.4
41.48	1151.0	969.4
41.49	1155.0	969.4
41.5	1169.0	969.4
41.51	1178.0	969.4
41.52	1135.0	969.4
41.53	1134.0	969.4
41.54	1170.0	969.4
41.55	1149.0	969.4
41.56	1059.0	969.5
41.57	1088.0	969.5
41.58	1048.0	969.5
41.59	1068.0	969.5
41.6	1107.0	969.5
41.61	1081.0	969.5
41.62	1072.0	969.5
41.63	1071.0	969.5
41.64	1050.0	969.5
41.65	1104.0	969.5
41.66	1038.0	969.5
41.67	1027.0	969.5
41.68	1054.0	969.5
41.69	1043.0	969.6
41.7	1020.0	969.6
41.71	1084.0	969.6
41.72	1097.0	969.6
41.73	1072.0	969.6
41.74	1042.0	969.6
41.75	1034.0	969.6
41.76	1042.0	969.6
41.77	1017.0	969.7
41.78	1027.0	969.7
41.79	999.0	969.7
41.8	1010.0	969.7
41.81	1036.0	969.7
41.82	1065.0	969.7
41.83	1051.0	969.7
41.84	1056.0	969.8
41.85	1052.0	969.8
41.86	1016.0	969.8
41.87	979.0	969.8
41.88	1030.0	969.8
41.89	1035.0	969.8
41.9	1055.0	969.9
41.91	1046.0	969.9
41.92	1028.0	969.9
41.93	1059.0	969.9
41.94	1051.0	969.9
41.95	1043.0	969.9
41.96	1043.0	970.0
41.97	1053.0	970.0
41.98	1017.0	970.0
41.99	1042.0	970.0
42.0	1022.0	970.1
42.01	1006.0	970.1
42.02	1029.0	970.1
42.03	994.0	970.1
42.04	981.0	970.1
42.05	1023.0	970.2
42.06	1022.0	970.2
42.07	1062.0	970.2
42.08	1059.0	970.2
42.09	1044.0	970.3
42.1	1067.0	970.3
42.11	1071.0	970.3
42.12	1063.0	970.3
42.13	1057.0	970.4
42.14	1013.0	970.4
42.15	1056.0	970.4
42.16	1042.0	970.4
42.17	1004.0	970.5
42.18	1001.0	970.5
42.19	1030.0	970.5
42.2	1079.0	970.5
42.21	1057.0	970.6
42.22	1029.0	970.6
42.23	1027.0	970.6
42.24	1011.0	970.7
42.25	1045.0	970.7
42.26	1089.0	970.7
42.27	1063.0	970.8
42.28	1033.0	970.8
42.29	1040.0	970.8
42.3	1061.0	970.8
42.31	1082.0	970.9
42.32	1044.0	970.9
42.33	1076.0	970.9
42.34	1047.0	971.0
42.35	1043.0	971.0
42.36	1040.0	971.0
42.37	1021.0	971.1
42.38	1041.0	971.1
42.39	1039.0	971.1
42.4	1067.0	971.2
42.41	1028.0	971.2
42.42	1010.0	971.2
42.43	1051.0	971.3
42.44	1019.0	971.3
42.45	1015.0	971.3
42.46	1048.0	971.4
42.47	1062.0	971.4
42.48	1063.0	971.5
42.49	1084.0	971.5
42.5	1051.0	971.5
42.51	1026.0	971.6
42.52	1060.0	971.6
42.53	1079.0	971.6
42.54	1032.0	971.7
42.55	1046.0	971.7
42.56	1068.0	971.8
42.57	1096.0	971.8
42.58	1033.0	971.8
42.59	1024.0	971.9
42.6	1073.0	971.9
42.61	1080.0	972.0
42.62	1123.0	972.0
42.63	1108.0	972.0
42.64	1047.0	972.1
42.65	1091.0	972.1
42.66	1066.0	972.2
42.67	1030.0	972.2
42.68	1038.0	972.2
42.69	1059.0	972.3
42.7	1080.0	972.3
42.71	1090.0	972.4
42.72	1108.0	972.4
42.73	1103.0	972.5
42.74	1095.0	972.5
42.75	1072.0	972.6
42.76	1072.0	972.6
42.77	1111.0	972.6
42.78	1071.0	972.7
42.79	1070.0	972.7
42.8	1078.0	972.8
42.81	1088.0	972.8
42.82	1052.0	972.9
42.83	1063.0	972.9
42.84	1114.0	973.0
42.85	1125.0	973.0
42.86	1101.0	973.1
42.87	1127.0	973.1
42.88	1133.0	973.2
42.89	1094.0	973.2
42.9	1106.0	973.2
42.91	1133.0	973.3
42.92	1092.0	973.3
42.93	1116.0	973.4
42.94	1115.0	973.4
42.95	1092.0	973.5
42.96	1112.0	973.5
42.97	1094.0	973.6
42.98	1105.0	973.6
42.99	1069.0	973.7
43.0	1073.0	973.7
43.01	1088.0	973.8
43.02	1087.0	973.8
43.03	1100.0	973.9
43.04	1154.0	973.9
43.05	1165.0	974.0
43.06	1142.0	974.1
43.07	1146.0	974.1
43.08	1167.0	974.2
43.09	1192.0	974.2
43.1	1212.0	974.3
43.11	1187.0	974.3
43.12	1211.0	974.4
43.13	1230.0	974.4
43.14	1211.0	974.5
43.15	1144.0	974.5
43.16	1184.0	974.6
43.17	1205.0	974.6
43.18	1250.0	974.7
43.19	1275.0	974.7
43.2	1252.0	974.8
43.21	1199.0	974.9
43.22	1202.0	974.9
43.23	1248.0	975.0
43.24	1287.0	975.0
43.25	1259.0	975.1
43.26	1247.0	975.1
43.27	1305.0	975.2
43.28	1298.0	975.3
43.29	1314.0	975.3
43.3	1369.0	975.4
43.31	1357.0	975.4
43.32	1404.0	975.5
43.33	1434.0	975.5
43.34	1419.0	975.6
43.35	1482.0	975.7
43.36	1492.0	975.7
43.37	1500.0	975.8
43.38	1516.0	975.8
43.39	1542.0	975.9
43.4	1574.0	976.0
43.41	1564.0	976.0
43.42	1624.0	976.1
43.43	1649.0	976.1
43.44	1687.0	976.2
43.45	1705.0	976.3
43.46	1711.0	976.3
43.47	1774.0	976.4
43.48	1857.0	976.4
43.49	1947.0	976.5
43.5	1976.0	976.6
43.51	2048.0	976.6
43.52	2140.0	976.7
43.53	2143.0	976.7
43.54	2160.0	976.8
43.55	2245.0	976.9
43.56	2346.0	976.9
43.57	2384.0	977.0
43.58	2450.0	977.1
43.59	2478.0	977.1
43.6	2575.0	977.2
43.61	2594.0	977.2
43.62	2650.0	977.3
43.63	2754.0	977.4
43.64	2765.0	977.4
43.65	2785.0	977.5
43.66	2826.0	977.6
43.67	2820.0	977.6
43.68	2865.0	977.7
43.69	2881.0	977.8
43.7	2882.0	977.8
43.71	2947.0	977.9
43.72	2953.0	978.0
43.73	2953.0	978.0
43.74	3007.0	978.1
43.75	3116.0	978.2
43.76	3148.0	978.2
43.77	3218.0	978.3
43.78	3251.0	978.4
43.79	3359.0	978.4
43.8	3449.0	978.5
43.81	3485.0	978.6
43.82	3598.0	978.6
43.83	3743.0	978.7
43.84	3912.0	978.8
43.85	4042.0	978.8
43.86	4144.0	978.9
43.87	4259.0	979.0
43.88	4382.0	979.0
43.89	4382.0	979.1
43.9	4387.0	979.2
43.91	4340.0	979.2
43.92	4210.0	979.3
43.93	4044.0	979.4
43.94	3973.0	979.4
43.95	3935.0	979.5
43.96	3814.0	979.6
43.97	3777.0	979.6
43.98	3583.0	979.7
43.99	3517.0	979.8
44.0	3384.0	979.9
44.01	3338.0	979.9
44.02	3168.0	980.0
44.03	3014.0	980.1
44.04	2923.0	980.1
44.05	2767.0	980.2
44.06	2612.0	980.3
44.07	2477.0	980.4
44.08	2347.0	980.4
44.09	2252.0	980.5
44.1	2139.0	980.6
44.11	2076.0	980.6
44.12	1987.0	980.7
44.13	1861.0	980.8
44.14	1848.0	980.9
44.15	1785.0	980.9
44.16	1719.0	981.0
44.17	1696.0	981.1
44.18	1624.0	981.1
44.19	1565.0	981.2
44.2	1551.0	981.3
44.21	1522.0	981.4
44.22	1465.0	981.4
44.23	1425.0	981.5
44.24	1411.0	981.6
44.25	1421.0	981.6
44.26	1399.0	981.7
44.27	1374.0	981.8
44.28	1382.0	981.9
44.29	1375.0	981.9
44.3	1324.0	982.0
44.31	1302.0	982.1
44.32	1303.0	982.2
44.33	1252.0	982.2
44.34	1252.0	982.3
44.35	1275.0	982.4
44.36	1248.0	982.5
44.37	1231.0	982.5
44.38	1218.0	982.6
44.39	1218.0	982.7
44.4	1199.0	982.8
44.41	1150.0	982.8
44.42	1165.0	982.9
44.43	1168.0	983.0
44.44	1189.0	983.1
44.45	1195.0	983.1
44.46	1189.0	983.2
44.47	1159.0	983.3
44.48	1137.0	983.4
44.49	1123.0	983.4
44.5	1160.0	983.5
44.51	1159.0	983.6
44.52	1136.0	983.7
44.53	1125.0	983.7
44.54	1123.0	983.8
44.55	1156.0	983.9
44.56	1140.0	984.0
44.57	1129.0	984.0
44.58	1113.0	984.1
44.59	1105.0	984.2
44.6	1084.0	984.3
44.61	1100.0	984.4
44.62	1136.0	984.4
44.63	1158.0	984.5
44.64	1131.0	984.6
44.65	1116.0	984.7
44.66	1087.0	984.7
44.67	1114.0	984.8
44.68	1093.0	984.9
44.69	1095.0	985.0
44.7	1131.0	985.0
44.71	1111.0	985.1
44.72	1082.0	985.2
44.73	1090.0	985.3
44.74	1075.0	985.4
44.75	1072.0	985.4
44.76	1078.0	985.5
44.77	1088.0	985.6
44.78	1100.0	985.7
44.79	1106.0	985.7
44.8	1117.0	985.8
44.81	1091.0	985.9
44.82	1090.0	986.0
44.83	1113.0	986.1
44.84	1109.0	986.1
44.85	1110.0	986.2
44.86	1132.0	986.3
44.87	1095.0	986.4
44.88	1075.0	986.5
44.89	1083.0	986.5
44.9	1069.0	986.6
44.91	1104.0	986.7
44.92	1086.0	986.8
44.93	1069.0	986.8
44.94	1083.0	986.9
44.95	1083.0	987.0
44.96	1065.0	987.1
44.97	1085.0	987.2
44.98	1095.0	987.2
44.99	1063.0	987.3
45.0	1068.0	987.4
45.01	1102.0	987.5
45.02	1113.0	987.6
45.03	1087.0	987.6
45.04	1077.0	987.7
45.05	1071.0	987.8
45.06	1068.0	987.9
45.07	1081.0	988.0
45.08	1090.0	988.0
45.09	1076.0	988.1
45.1	1083.0	988.2
45.11	1086.0	988.3
45.12	1087.0	988.4
45.13	1067.0	988.4
45.14	1078.0	988.5
45.15	1042.0	988.6
45.16	1032.0	988.7
45.17	1074.0	988.8
45.18	1075.0	988.8
45.19	1058.0	988.9
45.2	1055.0	989.0
45.21	1053.0	989.1
45.22	1049.0	989.2
45.23	1042.0	989.2
45.24	1044.0	989.3
45.25	1015.0	989.4
45.26	1030.0	989.5
45.27	1065.0	989.6
45.28	1055.0	989.6
45.29	1047.0	989.7
45.3	1061.0	989.8
45.31	1058.0	989.9
45.32	1023.0	990.0
45.33	1030.0	990.0
45.34	1023.0	990.1
45.35	1011.0	990.2
45.36	997.0	990.3
45.37	1041.0	990.4
45.38	1019.0	990.4
45.39	1004.0	990.5
45.4	1014.0	990.6
45.41	1019.0	990.7
45.42	1008.0	990.8
45.43	1034.0	990.8
45.44	1051.0	990.9
45.45	1049.0	991.0
45.46	1048.0	991.1
45.47	1010.0	991.2
45.48	1024.0	991.2
45.49	1064.0	991.3
45.5	1059.0	991.4
45.51	1038.0	991.5
45.52	1069.0	991.6
45.53	1050.0	991.6
45.54	1044.0	991.7
45.55	1023.0	991.8
45.56	1009.0	991.9
45.57	1020.0	992.0
45.58	1031.0	992.0
45.59	1046.0	992.1
45.6	1021.0	992.2
45.61	1005.0	992.3
45.62	1030.0	992.4
45.63	1064.0	992.4
45.64	1051.0	992.5
45.65	1014.0	992.6
45.66	1002.0	992.7
45.67	1029.0	992.8
45.68	1025.0	992.8
45.69	1031.0	992.9
45.7	1020.0	993.0
45.71	1048.0	993.1
45.72	1028.0	993.2
45.73	1038.0	993.2
45.74	1041.0	993.3
45.75	1019.0	993.4
45.76	1015.0	993.5
45.77	1009.0	993.6
45.78	1027.0	993.6
45.79	1010.0	993.7
45.8	1037.0	993.8
45.81	1057.0	993.9
45.82	1027.0	993.9
45.83	1008.0	994.0
45.84	1025.0	994.1
45.85	1057.0	994.2
45.86	1037.0	994.3
45.87	1026.0	994.3
45.88	1015.0	994.4
45.89	1012.0	994.5
45.9	1009.0	994.6
45.91	993.0	994.7
45.92	1021.0	994.7
45.93	1043.0	994.8
45.94	1073.0	994.9
45.95	1061.0	995.0
45.96	1044.0	995.1
45.97	1042.0	995.1
45.98	1051.0	995.2
45.99	1013.0	995.3
46.0	1033.0	995.4
46.01	1032.0	995.4
46.02	1018.0	995.5
46.03	1027.0	995.6
46.04	1010.0	995.7
46.05	1005.0	995.8
46.06	1025.0	995.8
46.07	1022.0	995.9
46.08	1029.0	996.0
46.09	1029.0	996.1
46.1	1048.0	996.2
46.11	1043.0	996.2
46.12	1028.0	996.3
46.13	1015.0	996.4
46.14	1019.0	996.5
46.15	1040.0	996.5
46.16	1043.0	996.6
46.17	1023.0	996.7
46.18	1027.0	996.8
46.19	1016.0	996.9
46.2	1025.0	996.9
46.21	1046.0	997.0
46.22	1017.0	997.1
46.23	1029.0	997.2
46.24	1058.0	997.2
46.25	1042.0	997.3
46.26	1023.0	997.4
46.27	1019.0	997.5
46.28	1015.0	997.5
46.29	1027.0	997.6
46.3	1013.0	997.7
46.31	998.0	997.8
46.32	1004.0	997.8
46.33	1009.0	997.9
46.34	1018.0	998.0
46.35	1039.0	998.1
46.36	1046.0	998.2
46.37	1017.0	998.2
46.38	1029.0	998.3
46.39	1024.0	998.4
46.4	991.0	998.5
46.41	1009.0	998.5
46.42	1032.0	998.6
46.43	1043.0	998.7
46.44	1039.0	998.8
46.45	1007.0	998.8
46.46	1002.0	998.9
46.47	1000.0	999.0
46.48	1007.0	999.1
46.49	1048.0	999.1
46.5	1054.0	999.2
46.51	1013.0	999.3
46.52	1004.0	999.4
46.53	1002.0	999.4
46.54	992.0	999.5
46.55	987.0	999.6
46.56	1022.0	999.6
46.57	1040.0	999.7
46.58	1064.0	999.8
46.59	1059.0	999.9
46.6	1018.0	999.9
46.61	988.0	1000.0
46.62	989.0	1000.1
46.63	1002.0	1000.2
46.64	1021.0	1000.2
46.65	1027.0	1000.3
46.66	1023.0	1000.4
46.67	1037.0	1000.5
46.68	1039.0	1000.5
46.69	1027.0	1000.6
46.7	995.0	1000.7
46.71	977.0	1000.7
46.72	1010.0	1000.8
46.73	1031.0	1000.9
46.74	1033.0	1001.0
46.75	1023.0	1001.0
46.76	1008.0	1001.1
46.77	995.0	1001.2
46.78	1013.0	1001.2
46.79	1027.0	1001.3
46.8	1021.0	1001.4
46.81	1045.0	1001.5
46.82	1057.0	1001.5
46.83	1060.0	1001.6
46.84	1035.0	1001.7
46.85	987.0	1001.7
46.86	981.0	1001.8
46.87	1011.0	1001.9
46.88	1010.0	1001.9
46.89	1012.0	1002.0
46.9	1025.0	1002.1
46.91	1008.0	1002.2
46.92	990.0	1002.2
46.93	1003.0	1002.3
46.94	1029.0	1002.4
46.95	1051.0	1002.4
46.96	1032.0	1002.5
46.97	1023.0	1002.6
46.98	1040.0	1002.6
46.99	1030.0	1002.7
47.0	1011.0	1002.8
47.01	1021.0	1002.8
47.02	1016.0	1002.9
47.03	1010.0	1003.0
47.04	1030.0	1003.0
47.05	1009.0	1003.1
47.06	1016.0	1003.2
47.07	1004.0	1003.3
47.08	1004.0	1003.3
47.09	1014.0	1003.4
47.1	1017.0	1003.5
47.11	1024.0	1003.5
47.12	1050.0	1003.6
47.13	1025.0	1003.7
47.14	994.0	1003.7
47.15	997.0	1003.8
47.16	1048.0	1003.9
47.17	1049.0	1003.9
47.18	1019.0	1004.0
47.19	1013.0	1004.1
47.2	1033.0	1004.1
47.21	1042.0	1004.2
47.22	1030.0	1004.3
47.23	1024.0	1004.3
47.24	1021.0	1004.4
47.25	991.0	1004.4
47.26	1027.0	1004.5
47.27	1034.0	1004.6
47.28	1009.0	1004.6
47.29	1021.0	1004.7
47.3	1023.0	1004.8
47.31	1031.0	1004.8
47.32	1046.0	1004.9
47.33	1036.0	1005.0
47.34	1030.0	1005.0
47.35	1029.0	1005.1
47.36	1012.0	1005.2
47.37	998.0	1005.2
47.38	988.0	1005.3
47.39	985.0	1005.4
47.4	1007.0	1005.4
47.41	1021.0	1005.5
47.42	1039.0	1005.5
47.43	1050.0	1005.6
47.44	1065.0	1005.7
47.45	1078.0	1005.7
47.46	1069.0	1005.8
47.47	1078.0	1005.9
47.48	1062.0	1005.9
47.49	1059.0	1006.0
47.5	1042.0	1006.0
47.51	1020.0	1006.1
47.52	1054.0	1006.2
47.53	1064.0	1006.2
47.54	1030.0	1006.3
47.55	1034.0	1006.4
47.56	1058.0	1006.4
47.57	1049.0	1006.5
47.58	1042.0	1006.5
47.59	1060.0	1006.6
47.6	1055.0	1006.7
47.61	1039.0	1006.7
47.62	1047.0	1006.8
47.63	1081.0	1006.9
47.64	1100.0	1006.9
47.65	1071.0	1007.0
47.66	1057.0	1007.0
47.67	1054.0	1007.1
47.68	1084.0	1007.2
47.69	1105.0	1007.2
47.7	1084.0	1007.3
47.71	1072.0	1007.3
47.72	1076.0	1007.4
47.73	1076.0	1007.5
47.74	1084.0	1007.5
47.75	1080.0	1007.6
47.76	1074.0	1007.6
47.77	1070.0	1007.7
47.78	1068.0	1007.8
47.79	1095.0	1007.8
47.8	1130.0	1007.9
47.81	1126.0	1007.9
47.82	1125.0	1008.0
47.83	1137.0	1008.1
47.84	1121.0	1008.1
47.85	1131.0	1008.2
47.86	1148.0	1008.2
47.87	1125.0	1008.3
47.88	1130.0	1008.4
47.89	1142.0	1008.4
47.9	1156.0	1008.5
47.91	1182.0	1008.5
47.92	1189.0	1008.6
47.93	1212.0	1008.6
47.94	1270.0	1008.7
47.95	1287.0	1008.8
47.96	1255.0	1008.8
47.97	1260.0	1008.9
47.98	1312.0	1008.9
47.99	1369.0	1009.0
48.0	1418.0	1009.1
48.01	1466.0	1009.1
48.02	1559.0	1009.2
48.03	1606.0	1009.2
48.04	1617.0	1009.3
48.05	1634.0	1009.3
48.06	1685.0	1009.4
48.07	1717.0	1009.5
48.08	1672.0	1009.5
48.09	1625.0	1009.6
48.1	1598.0	1009.6
48.11	1596.0	1009.7
48.12	1609.0	1009.7
48.13	1579.0	1009.8
48.14	1532.0	1009.9
48.15	1514.0	1009.9
48.16	1510.0	1010.0
48.17	1499.0	1010.0
48.18	1485.0	1010.1
48.19	1472.0	1010.1
48.2	1460.0	1010.2
48.21	1424.0	1010.2
48.22	1362.0	1010.3
48.23	1340.0	1010.4
48.24	1313.0	1010.4
48.25	1281.0	1010.5
48.26	1268.0	1010.5
48.27	1229.0	1010.6
48.28	1205.0	1010.6
48.29	1194.0	1010.7
48.3	1188.0	1010.7
48.31	1175.0	1010.8
48.32	1163.0	1010.9
48.33	1164.0	1010.9
48.34	1149.0	1011.0
48.35	1131.0	1011.0
48.36	1136.0	1011.1
48.37	1109.0	1011.1
48.38	1074.0	1011.2
48.39	1086.0	1011.2
48.4	1088.0	1011.3
48.41	1103.0	1011.3
48.42	1114.0	1011.4
48.43	1103.0	1011.4
48.44	1074.0	1011.5
48.45	1042.0	1011.6
48.46	1051.0	1011.6
48.47	1060.0	1011.7
48.48	1069.0	1011.7
48.49	1054.0	1011.8
48.5	1040.0	1011.8
48.51	1066.0	1011.9
48.52	1070.0	1011.9
48.53	1055.0	1012.0
48.54	1062.0	1012.0
48.55	1080.0	1012.1
48.56	1045.0	1012.1
48.57	1041.0	1012.2
48.58	1071.0	1012.2
48.59	1062.0	1012.3
48.6	1038.0	1012.4
48.61	1033.0	1012.4
48.62	1043.0	1012.5
48.63	1046.0	1012.5
48.64	1040.0	1012.6
48.65	1038.0	1012.6
48.66	1031.0	1012.7
48.67	1050.0	1012.7
48.68	1045.0	1012.8
48.69	1026.0	1012.8
48.7	1042.0	1012.9
48.71	1072.0	1012.9
48.72	1060.0	1013.0
48.73	1051.0	1013.0
48.74	1053.0	1013.1
48.75	1057.0	1013.1
48.76	1054.0	1013.2
48.77	1047.0	1013.2
48.78	1042.0	1013.3
48.79	1026.0	1013.3
48.8	1028.0	1013.4
48.81	1051.0	1013.4
48.82	1048.0	1013.5
48.83	1047.0	1013.5
48.84	1040.0	1013.6
48.85	1056.0	1013.6
48.86	1061.0	1013.7
48.87	1060.0	1013.7
48.88	1071.0	1013.8
48.89	1054.0	1013.8
48.9	1028.0	1013.9
48.91	1044.0	1013.9
48.92	1055.0	1014.0
48.93	1072.0	1014.0
48.94	1076.0	1014.1
48.95	1040.0	1014.1
48.96	1055.0	1014.2
48.97	1086.0	1014.2
48.98	1078.0	1014.3
48.99	1068.0	1014.3
49.0	1051.0	1014.4
49.01	1045.0	1014.4
49.02	1069.0	1014.5
49.03	1091.0	1014.5
49.04	1096.0	1014.6
49.05	1058.0	1014.6
49.06	1044.0	1014.7
49.07	1054.0	1014.7
49.08	1045.0	1014.8
49.09	1058.0	1014.8
49.1	1078.0	1014.9
49.11	1066.0	1014.9
49.12	1060.0	1015.0
49.13	1077.0	1015.0
49.14	1083.0	1015.1
49.15	1075.0	1015.1
49.16	1057.0	1015.2
49.17	1050.0	1015.2
49.18	1070.0	1015.3
49.19	1084.0	1015.3
49.2	1087.0	1015.4
49.21	1096.0	1015.4
49.22	1085.0	1015.5
49.23	1061.0	1015.5
49.24	1052.0	1015.6
49.25	1072.0	1015.6
49.26	1088.0	1015.7
49.27	1091.0	1015.7
49.28	1091.0	1015.8
49.29	1096.0	1015.8
49.3	1081.0	1015.8
49.31	1076.0	1015.9
49.32	1067.0	1015.9
49.33	1065.0	1016.0
49.34	1087.0	1016.0
49.35	1113.0	1016.1
49.36	1102.0	1016.1
49.37	1100.0	1016.2
49.38	1089.0	1016.2
49.39	1076.0	1016.3
49.4	1084.0	1016.3
49.41	1063.0	1016.4
49.42	1071.0	1016.4
49.43	1141.0	1016.5
49.44	1167.0	1016.5
49.45	1136.0	1016.6
49.46	1128.0	1016.6
49.47	1117.0	1016.7
49.48	1091.0	1016.7
49.49	1121.0	1016.7
49.5	1155.0	1016.8
49.51	1146.0	1016.8
49.52	1134.0	1016.9
49.53	1130.0	1016.9
49.54	1128.0	1017.0
49.55	1151.0	1017.0
49.56	1174.0	1017.1
49.57	1190.0	1017.1
49.58	1184.0	1017.2
49.59	1172.0	1017.2
49.6	1186.0	1017.3
49.61	1175.0	1017.3
49.62	1150.0	1017.3
49.63	1155.0	1017.4
49.64	1187.0	1017.4
49.65	1226.0	1017.5
49.66	1265.0	1017.5
49.67	1282.0	1017.6
49.68	1263.0	1017.6
49.69	1261.0	1017.7
49.7	1286.0	1017.7
49.71	1271.0	1017.8
49.72	1275.0	1017.8
49.73	1321.0	1017.8
49.74	1324.0	1017.9
49.75	1337.0	1017.9
49.76	1365.0	1018.0
49.77	1376.0	1018.0
49.78	1409.0	1018.1
49.79	1431.0	1018.1
49.8	1415.0	1018.2
49.81	1424.0	1018.2
49.82	1457.0	1018.3
49.83	1491.0	1018.3
49.84	1537.0	1018.3
49.85	1589.0	1018.4
49.86	1608.0	1018.4
49.87	1625.0	1018.5
49.88	1655.0	1018.5
49.89	1707.0	1018.6
49.9	1764.0	1018.6
49.91	1811.0	1018.7
49.92	1883.0	1018.7
49.93	1950.0	1018.7
49.94	1970.0	1018.8
49.95	2012.0	1018.8
49.96	2051.0	1018.9
49.97	2090.0	1018.9
49.98	2176.0	1019.0
49.99	2282.0	1019.0
50.0	2341.0	1019.1
50.01	2353.0	1019.1
50.02	2393.0	1019.1
50.03	2447.0	1019.2
50.04	2476.0	1019.2
50.05	2513.0	1019.3
50.06	2522.0	1019.3
50.07	2491.0	1019.4
50.08	2482.0	1019.4
50.09	2496.0	1019.4
50.1	2509.0	1019.5
50.11	2521.0	1019.5
50.12	2479.0	1019.6
50.13	2420.0	1019.6
50.14	2379.0	1019.7
50.15	2336.0	1019.7
50.16	2303.0	1019.8
50.17	2277.0	1019.8
50.18	2203.0	1019.8
50.19	2128.0	1019.9
50.2	2133.0	1019.9
50.21	2107.0	1020.0
50.22	2054.0	1020.0
50.23	2018.0	1020.1
50.24	1952.0	1020.1
50.25	1926.0	1020.1
50.26	1915.0	1020.2
50.27	1832.0	1020.2
50.28	1757.0	1020.3
50.29	1726.0	1020.3
50.3	1688.0	1020.4
50.31	1660.0	1020.4
50.32	1642.0	1020.4
50.33	1641.0	1020.5
50.34	1597.0	1020.5
50.35	1530.0	1020.6
50.36	1514.0	1020.6
50.37	1482.0	1020.7
50.38	1459.0	1020.7
50.39	1432.0	1020.7
50.4	1393.0	1020.8
50.41	1371.0	1020.8
50.42	1372.0	1020.9
50.43	1381.0	1020.9
50.44	1367.0	1021.0
50.45	1375.0	1021.0
50.46	1365.0	1021.0
50.47	1306.0	1021.1
50.48	1278.0	1021.1
50.49	1282.0	1021.2
50.5	1260.0	1021.2
50.51	1246.0	1021.3
50.52	1240.0	1021.3
50.53	1216.0	1021.3
50.54	1202.0	1021.4
50.55	1187.0	1021.4
50.56	1201.0	1021.5
50.57	1223.0	1021.5
50.58	1191.0	1021.5
50.59	1188.0	1021.6
50.6	1205.0	1021.6
50.61	1191.0	1021.7
50.62	1159.0	1021.7
50.63	1121.0	1021.8
50.64	1127.0	1021.8
50.65	1162.0	1021.8
50.66	1156.0	1021.9
50.67	1146.0	1021.9
50.68	1144.0	1022.0
50.69	1155.0	1022.0
50.7	1178.0	1022.1
50.71	1171.0	1022.1
50.72	1170.0	1022.1
50.73	1145.0	1022.2
50.74	1101.0	1022.2
50.75	1083.0	1022.3
50.76	1070.0	1022.3
50.77	1095.0	1022.3
50.78	1125.0	1022.4
50.79	1113.0	1022.4
50.8	1123.0	1022.5
50.81	1131.0	1022.5
50.82	1110.0	1022.6
50.83	1109.0	1022.6
50.84	1128.0	1022.6
50.85	1121.0	1022.7
50.86	1097.0	1022.7
50.87	1113.0	1022.8
50.88	1122.0	1022.8
50.89	1089.0	1022.8
50.9	1093.0	1022.9
50.91	1127.0	1022.9
50.92	1122.0	1023.0
50.93	1100.0	1023.0
50.94	1089.0	1023.1
50.95	1100.0	1023.1
50.96	1125.0	1023.1
50.97	1102.0	1023.2
50.98	1078.0	1023.2
50.99	1067.0	1023.3
51.0	1049.0	1023.3
51.01	1047.0	1023.3
51.02	1060.0	1023.4
51.03	1082.0	1023.4
51.04	1059.0	1023.5
51.05	1060.0	1023.5
51.06	1095.0	1023.5
51.07	1087.0	1023.6
51.08	1071.0	1023.6
51.09	1055.0	1023.7
51.1	1058.0	1023.7
51.11	1067.0	1023.8
51.12	1081.0	1023.8
51.13	1088.0	1023.8
51.14	1078.0	1023.9
51.15	1084.0	1023.9
51.16	1068.0	1024.0
51.17	1058.0	1024.0
51.18	1064.0	1024.0
51.19	1080.0	1024.1
51.2	1083.0	1024.1
51.21	1041.0	1024.2
51.22	1031.0	1024.2
51.23	1077.0	1024.2
51.24	1068.0	1024.3
51.25	1059.0	1024.3
51.26	1075.0	1024.4
51.27	1036.0	1024.4
51.28	1035.0	1024.4
51.29	1066.0	1024.5
51.3	1082.0	1024.5
51.31	1097.0	1024.6
51.32	1093.0	1024.6
51.33	1073.0	1024.7
51.34	1075.0	1024.7
51.35	1092.0	1024.7
51.36	1088.0	1024.8
51.37	1088.0	1024.8
51.38	1092.0	1024.9
51.39	1067.0	1024.9
51.4	1059.0	1024.9
51.41	1074.0	1025.0
51.42	1055.0	1025.0
51.43	1032.0	1025.1
51.44	1025.0	1025.1
51.45	1026.0	1025.1
51.46	1049.0	1025.2
51.47	1055.0	1025.2
51.48	1054.0	1025.3
51.49	1058.0	1025.3
51.5	1066.0	1025.3
51.51	1084.0	1025.4
51.52	1073.0	1025.4
51.53	1067.0	1025.5
51.54	1069.0	1025.5
51.55	1063.0	1025.6
51.56	1068.0	1025.6
51.57	1045.0	1025.6
51.58	1012.0	1025.7
51.59	1026.0	1025.7
51.6	1062.0	1025.8
51.61	1065.0	1025.8
51.62	1062.0	1025.8
51.63	1056.0	1025.9
51.64	1081.0	1025.9
51.65	1107.0	1026.0
51.66	1065.0	1026.0
51.67	1024.0	1026.0
51.68	1040.0	1026.1
51.69	1049.0	1026.1
51.7	1036.0	1026.2
51.71	1056.0	1026.2
51.72	1053.0	1026.2
51.73	1030.0	1026.3
51.74	1019.0	1026.3
51.75	1032.0	1026.4
51.76	1063.0	1026.4
51.77	1055.0	1026.5
51.78	1039.0	1026.5
51.79	1059.0	1026.5
51.8	1090.0	1026.6
51.81	1092.0	1026.6
51.82	1061.0	1026.7
51.83	1049.0	1026.7
51.84	1054.0	1026.7
51.85	1041.0	1026.8
51.86	1047.0	1026.8
51.87	1069.0	1026.9
51.88	1054.0	1026.9
51.89	1025.0	1026.9
51.9	1014.0	1027.0
51.91	1039.0	1027.0
51.92	1068.0	1027.1
51.93	1089.0	1027.1
51.94	1071.0	1027.1
51.95	1051.0	1027.2
51.96	1057.0	1027.2
51.97	1055.0	1027.3
51.98	1051.0	1027.3
51.99	1054.0	1027.4
52.0	1062.0	1027.4
52.01	1047.0	1027.4
52.02	1047.0	1027.5
52.03	1064.0	1027.5
52.04	1053.0	1027.6
52.05	1041.0	1027.6
52.06	1041.0	1027.6
52.07	1043.0	1027.7
52.08	1067.0	1027.7
52.09	1075.0	1027.8
52.1	1035.0	1027.8
52.11	1029.0	1027.8
52.12	1066.0	1027.9
52.13	1039.0	1027.9
52.14	1007.0	1028.0
52.15	1027.0	1028.0
52.16	1047.0	1028.1
52.17	1075.0	1028.1
52.18	1082.0	1028.1
52.19	1060.0	1028.2
52.2	1051.0	1028.2
52.21	1060.0	1028.3
52.22	1058.0	1028.3
52.23	1052.0	1028.3
52.24	1057.0	1028.4
52.25	1035.0	1028.4
52.26	1012.0	1028.5
52.27	1020.0	1028.5
52.28	1046.0	1028.5
52.29	1085.0	1028.6
52.3	1099.0	1028.6
52.31	1078.0	1028.7
52.32	1048.0	1028.7
52.33	1049.0	1028.8
52.34	1062.0	1028.8
52.35	1062.0	1028.8
52.36	1049.0	1028.9
52.37	1049.0	1028.9
52.38	1068.0	1029.0
52.39	1081.0	1029.0
52.4	1039.0	1029.0
52.41	1012.0	1029.1
52.42	1043.0	1029.1
52.43	1048.0	1029.2
52.44	1050.0	1029.2
52.45	1101.0	1029.3
52.46	1121.0	1029.3
52.47	1116.0	1029.3
52.48	1101.0	1029.4
52.49	1065.0	1029.4
52.5	1051.0	1029.5
52.51	1060.0	1029.5
52.52	1071.0	1029.5
52.53	1069.0	1029.6
52.54	1077.0	1029.6
52.55	1072.0	1029.7
52.56	1075.0	1029.7
52.57	1083.0	1029.8
52.58	1094.0	1029.8
52.59	1108.0	1029.8
52.6	1114.0	1029.9
52.61	1067.0	1029.9
52.62	1048.0	1030.0
52.63	1075.0	1030.0
52.64	1099.0	1030.0
52.65	1114.0	1030.1
52.66	1125.0	1030.1
52.67	1118.0	1030.2
52.68	1094.0	1030.2
52.69	1070.0	1030.3
52.7	1084.0	1030.3
52.71	1097.0	1030.3
52.72	1095.0	1030.4
52.73	1099.0	1030.4
52.74	1118.0	1030.5
52.75	1116.0	1030.5
52.76	1122.0	1030.6
52.77	1144.0	1030.6
52.78	1131.0	1030.6
52.79	1095.0	1030.7
52.8	1093.0	1030.7
52.81	1106.0	1030.8
52.82	1105.0	1030.8
52.83	1139.0	1030.8
52.84	1153.0	1030.9
52.85	1132.0	1030.9
52.86	1145.0	1031.0
52.87	1178.0	1031.0
52.88	1177.0	1031.1
52.89	1162.0	1031.1
52.9	1145.0	1031.1
52.91	1173.0	1031.2
52.92	1214.0	1031.2
52.93	1251.0	1031.3
52.94	1270.0	1031.3
52.95	1261.0	1031.3
52.96	1273.0	1031.4
52.97	1316.0	1031.4
52.98	1343.0	1031.5
52.99	1359.0	1031.5
53.0	1359.0	1031.6
53.01	1367.0	1031.6
53.02	1395.0	1031.6
53.03	1408.0	1031.7
53.04	1416.0	1031.7
53.05	1458.0	1031.8
53.06	1521.0	1031.8
53.07	1535.0	1031.9
53.08	1507.0	1031.9
53.09	1456.0	1031.9
53.1	1444.0	1032.0
53.11	1477.0	1032.0
53.12	1488.0	1032.1
53.13	1501.0	1032.1
53.14	1478.0	1032.1
53.15	1430.0	1032.2
53.16	1423.0	1032.2
53.17	1418.0	1032.3
53.18	1419.0	1032.3
53.19	1410.0	1032.4
53.2	1404.0	1032.4
53.21	1417.0	1032.4
53.22	1407.0	1032.5
53.23	1374.0	1032.5
53.24	1349.0	1032.6
53.25	1335.0	1032.6
53.26	1325.0	1032.7
53.27	1341.0	1032.7
53.28	1345.0	1032.7
53.29	1322.0	1032.8
53.3	1278.0	1032.8
53.31	1249.0	1032.9
53.32	1220.0	1032.9
53.33	1216.0	1032.9
53.34	1220.0	1033.0
53.35	1203.0	1033.0
53.36	1186.0	1033.1
53.37	1180.0	1033.1
53.38	1170.0	1033.2
53.39	1155.0	1033.2
53.4	1150.0	1033.2
53.41	1166.0	1033.3
53.42	1139.0	1033.3
53.43	1133.0	1033.4
53.44	1138.0	1033.4
53.45	1104.0	1033.5
53.46	1079.0	1033.5
53.47	1096.0	1033.5
53.48	1108.0	1033.6
53.49	1097.0	1033.6
53.5	1093.0	1033.7
53.51	1109.0	1033.7
53.52	1098.0	1033.7
53.53	1066.0	1033.8
53.54	1070.0	1033.8
53.55	1086.0	1033.9
53.56	1090.0	1033.9
53.57	1097.0	1034.0
53.58	1080.0	1034.0
53.59	1073.0	1034.0
53.6	1060.0	1034.1
53.61	1058.0	1034.1
53.62	1072.0	1034.2
53.63	1070.0	1034.2
53.64	1088.0	1034.2
53.65	1102.0	1034.3
53.66	1103.0	1034.3
53.67	1108.0	1034.4
53.68	1095.0	1034.4
53.69	1077.0	1034.5
53.7	1071.0	1034.5
53.71	1050.0	1034.5
53.72	1044.0	1034.6
53.73	1057.0	1034.6
53.74	1062.0	1034.7
53.75	1060.0	1034.7
53.76	1033.0	1034.8
53.77	1064.0	1034.8
53.78	1102.0	1034.8
53.79	1061.0	1034.9
53.8	1031.0	1034.9
53.81	1043.0	1035.0
53.82	1053.0	1035.0
53.83	1063.0	1035.0
53.84	1074.0	1035.1
53.85	1093.0	1035.1
53.86	1095.0	1035.2
53.87	1056.0	1035.2
53.88	1035.0	1035.3
53.89	1053.0	1035.3
53.9	1070.0	1035.3
53.91	1052.0	1035.4
53.92	1041.0	1035.4
53.93	1052.0	1035.5
53.94	1060.0	1035.5
53.95	1084.0	1035.5
53.96	1096.0	1035.6
53.97	1079.0	1035.6
53.98	1063.0	1035.7
53.99	1067.0	1035.7
54.0	1084.0	1035.8
54.01	1087.0	1035.8
54.02	1052.0	1035.8
54.03	1057.0	1035.9
54.04	1055.0	1035.9
54.05	1044.0	1036.0
54.06	1075.0	1036.0
54.07	1084.0	1036.0
54.08	1064.0	1036.1
54.09	1042.0	1036.1
54.1	1033.0	1036.2
54.11	1045.0	1036.2
54.12	1066.0	1036.3
54.13	1071.0	1036.3
54.14	1062.0	1036.3
54.15	1055.0	1036.4
54.16	1063.0	1036.4
54.17	1079.0	1036.5
54.18	1079.0	1036.5
54.19	1079.0	1036.5
54.2	1070.0	1036.6
54.21	1073.0	1036.6
54.22	1077.0	1036.7
54.23	1062.0	1036.7
54.24	1071.0	1036.8
54.25	1088.0	1036.8
54.26	1086.0	1036.8
54.27	1068.0	1036.9
54.28	1062.0	1036.9
54.29	1055.0	1037.0
54.3	1051.0	1037.0
54.31	1058.0	1037.0
54.32	1064.0	1037.1
54.33	1071.0	1037.1
54.34	1068.0	1037.2
54.35	1040.0	1037.2
54.36	1031.0	1037.2
54.37	1044.0	1037.3
54.38	1044.0	1037.3
54.39	1033.0	1037.4
54.4	1044.0	1037.4
54.41	1062.0	1037.5
54.42	1059.0	1037.5
54.43	1041.0	1037.5
54.44	1045.0	1037.6
54.45	1072.0	1037.6
54.46	1094.0	1037.7
54.47	1092.0	1037.7
54.48	1070.0	1037.7
54.49	1079.0	1037.8
54.5	1048.0	1037.8
54.51	1031.0	1037.9
54.52	1036.0	1037.9
54.53	1047.0	1037.9
54.54	1034.0	1038.0
54.55	1008.0	1038.0
54.56	1015.0	1038.1
54.57	1042.0	1038.1
54.58	1072.0	1038.2
54.59	1081.0	1038.2
54.6	1064.0	1038.2
54.61	1060.0	1038.3
54.62	1057.0	1038.3
54.63	1052.0	1038.4
54.64	1084.0	1038.4
54.65	1101.0	1038.4
54.66	1092.0	1038.5
54.67	1089.0	1038.5
54.68	1070.0	1038.6
54.69	1086.0	1038.6
54.7	1084.0	1038.6
54.71	1058.0	1038.7
54.72	1042.0	1038.7
54.73	1046.0	1038.8
54.74	1040.0	1038.8
54.75	1016.0	1038.8
54.76	1034.0	1038.9
54.77	1057.0	1038.9
54.78	1074.0	1039.0
54.79	1086.0	1039.0
54.8	1096.0	1039.0
54.81	1110.0	1039.1
54.82	1098.0	1039.1
54.83	1102.0	1039.2
54.84	1061.0	1039.2
54.85	1064.0	1039.2
54.86	1063.0	1039.3
54.87	1072.0	1039.3
54.88	1099.0	1039.4
54.89	1071.0	1039.4
54.9	1060.0	1039.4
54.91	1075.0	1039.5
54.92	1085.0	1039.5
54.93	1068.0	1039.6
54.94	1070.0	1039.6
54.95	1070.0	1039.6
54.96	1072.0	1039.7
54.97	1086.0	1039.7
54.98	1099.0	1039.8
54.99	1105.0	1039.8
55.0	1103.0	1039.8
55.01	1134.0	1039.9
55.02	1136.0	1039.9
55.03	1113.0	1040.0
55.04	1129.0	1040.0
55.05	1122.0	1040.0
55.06	1096.0	1040.1
55.07	1069.0	1040.1
55.08	1095.0	1040.2
55.09	1117.0	1040.2
55.1	1148.0	1040.2
55.11	1159.0	1040.3
55.12	1135.0	1040.3
55.13	1120.0	1040.4
55.14	1119.0	1040.4
55.15	1110.0	1040.4
55.16	1104.0	1040.5
55.17	1120.0	1040.5
55.18	1125.0	1040.6
55.19	1171.0	1040.6
55.2	1194.0	1040.6
55.21	1171.0	1040.7
55.22	1160.0	1040.7
55.23	1166.0	1040.8
55.24	1169.0	1040.8
55.25	1154.0	1040.8
55.26	1146.0	1040.9
55.27	1161.0	1040.9
55.28	1191.0	1041.0
55.29	1189.0	1041.0
55.3	1197.0	1041.0
55.31	1164.0	1041.1
55.32	1173.0	1041.1
55.33	1217.0	1041.2
55.34	1232.0	1041.2
55.35	1222.0	1041.2
55.36	1209.0	1041.3
55.37	1232.0	1041.3
55.38	1260.0	1041.4
55.39	1253.0	1041.4
55.4	1306.0	1041.4
55.41	1345.0	1041.5
55.42	1312.0	1041.5
55.43	1297.0	1041.5
55.44	1300.0	1041.6
55.45	1313.0	1041.6
55.46	1285.0	1041.7
55.47	1317.0	1041.7
55.48	1330.0	1041.7
55.49	1331.0	1041.8
55.5	1324.0	1041.8
55.51	1303.0	1041.9
55.52	1305.0	1041.9
55.53	1284.0	1041.9
55.54	1276.0	1042.0
55.55	1275.0	1042.0
55.56	1280.0	1042.0
55.57	1271.0	1042.1
55.58	1281.0	1042.1
55.59	1271.0	1042.2
55.6	1254.0	1042.2
55.61	1268.0	1042.2
55.62	1257.0	1042.3
55.63	1253.0	1042.3
55.64	1265.0	1042.4
55.65	1228.0	1042.4
55.66	1194.0	1042.4
55.67	1181.0	1042.5
55.68	1166.0	1042.5
55.69	1163.0	1042.5
55.7	1186.0	1042.6
55.71	1179.0	1042.6
55.72	1203.0	1042.7
55.73	1173.0	1042.7
55.74	1166.0	1042.7
55.75	1155.0	1042.8
55.76	1141.0	1042.8
55.77	1164.0	1042.8
55.78	1147.0	1042.9
55.79	1153.0	1042.9
55.8	1154.0	1043.0
55.81	1130.0	1043.0
55.82	1131.0	1043.0
55.83	1117.0	1043.1
55.84	1098.0	1043.1
55.85	1137.0	1043.2
55.86	1135.0	1043.2
55.87	1118.0	1043.2
55.88	1128.0	1043.3
55.89	1111.0	1043.3
55.9	1069.0	1043.3
55.91	1081.0	1043.4
55.92	1141.0	1043.4
55.93	1132.0	1043.4
55.94	1091.0	1043.5
55.95	1122.0	1043.5
55.96	1113.0	1043.6
55.97	1082.0	1043.6
55.98	1091.0	1043.6
55.99	1089.0	1043.7
56.0	1103.0	1043.7
56.01	1141.0	1043.7
56.02	1122.0	1043.8
56.03	1091.0	1043.8
56.04	1082.0	1043.9
56.05	1109.0	1043.9
56.06	1113.0	1043.9
56.07	1081.0	1044.0
56.08	1066.0	1044.0
56.09	1090.0	1044.0
56.1	1110.0	1044.1
56.11	1092.0	1044.1
56.12	1090.0	1044.1
56.13	1109.0	1044.2
56.14	1113.0	1044.2
56.15	1092.0	1044.3
56.16	1087.0	1044.3
56.17	1078.0	1044.3
56.18	1067.0	1044.4
56.19	1097.0	1044.4
56.2	1115.0	1044.4
56.21	1113.0	1044.5
56.22	1111.0	1044.5
56.23	1101.0	1044.5
56.24	1083.0	1044.6
56.25	1079.0	1044.6
56.26	1078.0	1044.7
56.27	1070.0	1044.7
56.28	1044.0	1044.7
56.29	1037.0	1044.8
56.3	1058.0	1044.8
56.31	1060.0	1044.8
56.32	1095.0	1044.9
56.33	1084.0	1044.9
56.34	1052.0	1044.9
56.35	1076.0	1045.0
56.36	1142.0	1045.0
56.37	1131.0	1045.1
56.38	1122.0	1045.1
56.39	1118.0	1045.1
56.4	1103.0	1045.2
56.41	1108.0	1045.2
56.42	1124.0	1045.2
56.43	1107.0	1045.3
56.44	1081.0	1045.3
56.45	1051.0	1045.3
56.46	1060.0	1045.4
56.47	1085.0	1045.4
56.48	1092.0	1045.4
56.49	1070.0	1045.5
56.5	1035.0	1045.5
56.51	1044.0	1045.5
56.52	1078.0	1045.6
56.53	1097.0	1045.6
56.54	1124.0	1045.6
56.55	1125.0	1045.7
56.56	1082.0	1045.7
56.57	1070.0	1045.8
56.58	1100.0	1045.8
56.59	1109.0	1045.8
56.6	1099.0	1045.9
56.61	1083.0	1045.9
56.62	1075.0	1045.9
56.63	1127.0	1046.0
56.64	1137.0	1046.0
56.65	1106.0	1046.0
56.66	1085.0	1046.1
56.67	1102.0	1046.1
56.68	1096.0	1046.1
56.69	1065.0	1046.2
56.7	1062.0	1046.2
56.71	1076.0	1046.2
56.72	1106.0	1046.3
56.73	1078.0	1046.3
56.74	1080.0	1046.3
56.75	1077.0	1046.4
56.76	1092.0	1046.4
56.77	1106.0	1046.4
56.78	1108.0	1046.5
56.79	1069.0	1046.5
56.8	1048.0	1046.5
56.81	1093.0	1046.6
56.82	1122.0	1046.6
56.83	1097.0	1046.6
56.84	1073.0	1046.7
56.85	1086.0	1046.7
56.86	1085.0	1046.7
56.87	1069.0	1046.8
56.88	1067.0	1046.8
56.89	1077.0	1046.8
56.9	1098.0	1046.9
56.91	1099.0	1046.9
56.92	1123.0	1046.9
56.93	1099.0	1047.0
56.94	1074.0	1047.0
56.95	1088.0	1047.0
56.96	1110.0	1047.1
56.97	1103.0	1047.1
56.98	1115.0	1047.1
56.99	1128.0	1047.2
57.0	1118.0	1047.2
57.01	1106.0	1047.2
57.02	1065.0	1047.3
57.03	1079.0	1047.3
57.04	1116.0	1047.3
57.05	1101.0	1047.4
57.06	1061.0	1047.4
57.07	1052.0	1047.4
57.08	1083.0	1047.5
57.09	1109.0	1047.5
57.1	1111.0	1047.5
57.11	1124.0	1047.6
57.12	1118.0	1047.6
57.13	1090.0	1047.6
57.14	1089.0	1047.6
57.15	1090.0	1047.7
57.16	1064.0	1047.7
57.17	1088.0	1047.7
57.18	1137.0	1047.8
57.19	1137.0	1047.8
57.2	1125.0	1047.8
57.21	1123.0	1047.9
57.22	1123.0	1047.9
57.23	1134.0	1047.9
57.24	1112.0	1048.0
57.25	1098.0	1048.0
57.26	1090.0	1048.0
57.27	1105.0	1048.1
57.28	1122.0	1048.1
57.29	1116.0	1048.1
57.3	1093.0	1048.2
57.31	1063.0	1048.2
57.32	1068.0	1048.2
57.33	1097.0	1048.2
57.34	1095.0	1048.3
57.35	1119.0	1048.3
57.36	1116.0	1048.3
57.37	1117.0	1048.4
57.38	1138.0	1048.4
57.39	1147.0	1048.4
57.4	1142.0	1048.5
57.41	1136.0	1048.5
57.42	1129.0	1048.5
57.43	1132.0	1048.6
57.44	1154.0	1048.6
57.45	1164.0	1048.6
57.46	1138.0	1048.6
57.47	1157.0	1048.7
57.48	1143.0	1048.7
57.49	1167.0	1048.7
57.5	1189.0	1048.8
57.51	1171.0	1048.8
57.52	1162.0	1048.8
57.53	1170.0	1048.9
57.54	1121.0	1048.9
57.55	1107.0	1048.9
57.56	1159.0	1048.9
57.57	1153.0	1049.0
57.58	1179.0	1049.0
57.59	1183.0	1049.0
57.6	1175.0	1049.1
57.61	1172.0	1049.1
57.62	1191.0	1049.1
57.63	1171.0	1049.1
57.64	1144.0	1049.2
57.65	1145.0	1049.2
57.66	1151.0	1049.2
57.67	1182.0	1049.3
57.68	1185.0	1049.3
57.69	1180.0	1049.3
57.7	1179.0	1049.3
57.71	1203.0	1049.4
57.72	1211.0	1049.4
57.73	1185.0	1049.4
57.74	1190.0	1049.5
57.75	1222.0	1049.5
57.76	1234.0	1049.5
57.77	1211.0	1049.5
57.78	1205.0	1049.6
57.79	1226.0	1049.6
57.8	1210.0	1049.6
57.81	1221.0	1049.7
57.82	1251.0	1049.7
57.83	1279.0	1049.7
57.84	1295.0	1049.7
57.85	1336.0	1049.8
57.86	1346.0	1049.8
57.87	1336.0	1049.8
57.88	1349.0	1049.9
57.89	1314.0	1049.9
57.9	1291.0	1049.9
57.91	1311.0	1049.9
57.92	1341.0	1050.0
57.93	1353.0	1050.0
57.94	1371.0	1050.0
57.95	1391.0	1050.0
57.96	1454.0	1050.1
57.97	1503.0	1050.1
57.98	1552.0	1050.1
57.99	1574.0	1050.2
58.0	1627.0	1050.2
58.01	1681.0	1050.2
58.02	1707.0	1050.2
58.03	1741.0	1050.3
58.04	1833.0	1050.3
58.05	1923.0	1050.3
58.06	1943.0	1050.3
58.07	1929.0	1050.4
58.08	1961.0	1050.4
58.09	2004.0	1050.4
58.1	2029.0	1050.4
58.11	2036.0	1050.5
58.12	1999.0	1050.5
58.13	1959.0	1050.5
58.14	1933.0	1050.6
58.15	1931.0	1050.6
58.16	1947.0	1050.6
58.17	1896.0	1050.6
58.18	1873.0	1050.7
58.19	1843.0	1050.7
58.2	1832.0	1050.7
58.21	1828.0	1050.7
58.22	1800.0	1050.8
58.23	1785.0	1050.8
58.24	1730.0	1050.8
58.25	1749.0	1050.8
58.26	1708.0	1050.9
58.27	1682.0	1050.9
58.28	1650.0	1050.9
58.29	1623.0	1050.9
58.3	1571.0	1051.0
58.31	1549.0	1051.0
58.32	1493.0	1051.0
58.33	1460.0	1051.0
58.34	1423.0	1051.1
58.35	1375.0	1051.1
58.36	1375.0	1051.1
58.37	1341.0	1051.1
58.38	1350.0	1051.2
58.39	1335.0	1051.2
58.4	1293.0	1051.2
58.41	1281.0	1051.2
58.42	1287.0	1051.3
58.43	1302.0	1051.3
58.44	1276.0	1051.3
58.45	1240.0	1051.3
58.46	1212.0	1051.3
58.47	1227.0	1051.4
58.48	1200.0	1051.4
58.49	1179.0	1051.4
58.5	1211.0	1051.4
58.51	1220.0	1051.5
58.52	1199.0	1051.5
58.53	1153.0	1051.5
58.54	1146.0	1051.5
58.55	1176.0	1051.6
58.56	1191.0	1051.6
58.57	1165.0	1051.6
58.58	1162.0	1051.6
58.59	1165.0	1051.7
58.6	1183.0	1051.7
58.61	1157.0	1051.7
58.62	1163.0	1051.7
58.63	1137.0	1051.7
58.64	1096.0	1051.8
58.65	1095.0	1051.8
58.66	1116.0	1051.8
58.67	1096.0	1051.8
58.68	1123.0	1051.9
58.69	1126.0	1051.9
58.7	1101.0	1051.9
58.71	1105.0	1051.9
58.72	1121.0	1051.9
58.73	1101.0	1052.0
58.74	1121.0	1052.0
58.75	1090.0	1052.0
58.76	1081.0	1052.0
58.77	1103.0	1052.1
58.78	1118.0	1052.1
58.79	1113.0	1052.1
58.8	1086.0	1052.1
58.81	1112.0	1052.1
58.82	1129.0	1052.2
58.83	1105.0	1052.2
58.84	1079.0	1052.2
58.85	1124.0	1052.2
58.86	1127.0	1052.2
58.87	1070.0	1052.3
58.88	1085.0	1052.3
58.89	1098.0	1052.3
58.9	1141.0	1052.3
58.91	1123.0	1052.3
58.92	1091.0	1052.4
58.93	1101.0	1052.4
58.94	1093.0	1052.4
58.95	1111.0	1052.4
58.96	1086.0	1052.4
58.97	1088.0	1052.5
58.98	1087.0	1052.5
58.99	1085.0	1052.5
59.0	1101.0	1052.5
59.01	1056.0	1052.5
59.02	1046.0	1052.6
59.03	1065.0	1052.6
59.04	1084.0	1052.6
59.05	1100.0	1052.6
59.06	1094.0	1052.6
59.07	1076.0	1052.7
59.08	1057.0	1052.7
59.09	1058.0	1052.7
59.1	1059.0	1052.7
59.11	1034.0	1052.7
59.12	1054.0	1052.8
59.13	1095.0	1052.8
59.14	1107.0	1052.8
59.15	1085.0	1052.8
59.16	1095.0	1052.8
59.17	1084.0	1052.9
59.18	1075.0	1052.9
59.19	1065.0	1052.9
59.2	1056.0	1052.9
59.21	1082.0	1052.9
59.22	1094.0	1052.9
59.23	1082.0	1053.0
59.24	1042.0	1053.0
59.25	1072.0	1053.0
59.26	1094.0	1053.0
59.27	1067.0	1053.0
59.28	1090.0	1053.1
59.29	1079.0	1053.1
59.3	1062.0	1053.1
59.31	1060.0	1053.1
59.32	1084.0	1053.1
59.33	1100.0	1053.1
59.34	1092.0	1053.2
59.35	1091.0	1053.2
59.36	1080.0	1053.2
59.37	1073.0	1053.2
59.38	1072.0	1053.2
59.39	1065.0	1053.2
59.4	1051.0	1053.3
59.41	1066.0	1053.3
59.42	1131.0	1053.3
59.43	1150.0	1053.3
59.44	1101.0	1053.3
59.45	1091.0	1053.3
59.46	1108.0	1053.4
59.47	1082.0	1053.4
59.48	1100.0	1053.4
59.49	1088.0	1053.4
59.5	1075.0	1053.4
59.51	1083.0	1053.4
59.52	1107.0	1053.5
59.53	1093.0	1053.5
59.54	1095.0	1053.5
59.55	1085.0	1053.5
59.56	1074.0	1053.5
59.57	1100.0	1053.5
59.58	1079.0	1053.5
59.59	1099.0	1053.6
59.6	1124.0	1053.6
59.61	1105.0	1053.6
59.62	1098.0	1053.6
59.63	1132.0	1053.6
59.64	1127.0	1053.6
59.65	1096.0	1053.6
59.66	1090.0	1053.7
59.67	1089.0	1053.7
59.68	1096.0	1053.7
59.69	1126.0	1053.7
59.7	1117.0	1053.7
59.71	1121.0	1053.7
59.72	1122.0	1053.7
59.73	1146.0	1053.8
59.74	1163.0	1053.8
59.75	1140.0	1053.8
59.76	1147.0	1053.8
59.77	1144.0	1053.8
59.78	1127.0	1053.8
59.79	1128.0	1053.8
59.8	1144.0	1053.9
59.81	1167.0	1053.9
59.82	1188.0	1053.9
59.83	1172.0	1053.9
59.84	1158.0	1053.9
59.85	1195.0	1053.9
59.86	1204.0	1053.9
59.87	1183.0	1053.9
59.88	1193.0	1054.0
59.89	1227.0	1054.0
59.9	1235.0	1054.0
59.91	1236.0	1054.0
59.92	1252.0	1054.0
59.93	1195.0	1054.0
59.94	1231.0	1054.0
59.95	1233.0	1054.0
59.96	1236.0	1054.0
59.97	1203.0	1054.1
59.98	1194.0	1054.1
59.99	1234.0	1054.1
60.0	1272.0	1054.1
60.01	1247.0	1054.1
60.02	1211.0	1054.1
60.03	1215.0	1054.1
60.04	1215.0	1054.1
60.05	1224.0	1054.1
60.06	1222.0	1054.2
60.07	1235.0	1054.2
60.08	1237.0	1054.2
60.09	1244.0	1054.2
60.1	1226.0	1054.2
60.11	1212.0	1054.2
60.12	1190.0	1054.2
60.13	1200.0	1054.2
60.14	1192.0	1054.2
60.15	1189.0	1054.3
60.16	1204.0	1054.3
60.17	1200.0	1054.3
60.18	1154.0	1054.3
60.19	1175.0	1054.3
60.2	1202.0	1054.3
60.21	1189.0	1054.3
60.22	1148.0	1054.3
60.23	1143.0	1054.3
60.24	1154.0	1054.3
60.25	1142.0	1054.3
60.26	1106.0	1054.4
60.27	1122.0	1054.4
60.28	1147.0	1054.4
60.29	1148.0	1054.4
60.3	1155.0	1054.4
60.31	1136.0	1054.4
60.32	1149.0	1054.4
60.33	1203.0	1054.4
60.34	1150.0	1054.4
60.35	1156.0	1054.4
60.36	1150.0	1054.4
60.37	1155.0	1054.4
60.38	1156.0	1054.4
60.39	1155.0	1054.5
60.4	1155.0	1054.5
60.41	1118.0	1054.5
60.42	1081.0	1054.5
60.43	1092.0	1054.5
60.44	1109.0	1054.5
60.45	1107.0	1054.5
60.46	1116.0	1054.5
60.47	1122.0	1054.5
60.48	1107.0	1054.5
60.49	1113.0	1054.5
60.5	1113.0	1054.5
60.51	1101.0	1054.5
60.52	1109.0	1054.5
60.53	1106.0	1054.5
60.54	1089.0	1054.5
60.55	1122.0	1054.6
60.56	1117.0	1054.6
60.57	1101.0	1054.6
60.58	1114.0	1054.6
60.59	1111.0	1054.6
60.6	1099.0	1054.6
60.61	1096.0	1054.6
60.62	1115.0	1054.6
60.63	1129.0	1054.6
60.64	1140.0	1054.6
60.65	1126.0	1054.6
60.66	1107.0	1054.6
60.67	1077.0	1054.6
60.68	1100.0	1054.6
60.69	1137.0	1054.6
60.7	1124.0	1054.6
60.71	1115.0	1054.6
60.72	1107.0	1054.6
60.73	1111.0	1054.6
60.74	1133.0	1054.6
60.75	1114.0	1054.6
60.76	1135.0	1054.6
60.77	1075.0	1054.6
60.78	1081.0	1054.7
60.79	1108.0	1054.7
60.8	1110.0	1054.7
60.81	1100.0	1054.7
60.82	1096.0	1054.7
60.83	1082.0	1054.7
60.84	1126.0	1054.7
60.85	1127.0	1054.7
60.86	1075.0	1054.7
60.87	1075.0	1054.7
60.88	1092.0	1054.7
60.89	1083.0	1054.7
60.9	1077.0	1054.7
60.91	1094.0	1054.7
60.92	1118.0	1054.7
60.93	1103.0	1054.7
60.94	1058.0	1054.7
60.95	1111.0	1054.7
60.96	1102.0	1054.7
60.97	1095.0	1054.7
60.98	1091.0	1054.7
60.99	1105.0	1054.7
61.0	1117.0	1054.7
61.01	1104.0	1054.7
61.02	1064.0	1054.7
61.03	1068.0	1054.7
61.04	1101.0	1054.7
61.05	1135.0	1054.7
61.06	1131.0	1054.7
61.07	1119.0	1054.7
61.08	1116.0	1054.7
61.09	1109.0	1054.7
61.1	1085.0	1054.7
61.11	1069.0	1054.7
61.12	1089.0	1054.7
61.13	1096.0	1054.7
61.14	1090.0	1054.7
61.15	1105.0	1054.7
61.16	1115.0	1054.7
61.17	1094.0	1054.7
61.18	1111.0	1054.7
61.19	1124.0	1054.7
61.2	1115.0	1054.7
61.21	1093.0	1054.7
61.22	1119.0	1054.7
61.23	1146.0	1054.7
61.24	1100.0	1054.7
61.25	1081.0	1054.7
61.26	1059.0	1054.7
61.27	1100.0	1054.7
61.28	1091.0	1054.7
61.29	1085.0	1054.6
61.3	1121.0	1054.6
61.31	1109.0	1054.6
61.32	1076.0	1054.6
61.33	1100.0	1054.6
61.34	1100.0	1054.6
61.35	1124.0	1054.6
61.36	1116.0	1054.6
61.37	1090.0	1054.6
61.38	1091.0	1054.6
61.39	1067.0	1054.6
61.4	1103.0	1054.6
61.41	1100.0	1054.6
61.42	1085.0	1054.6
61.43	1109.0	1054.6
61.44	1049.0	1054.6
61.45	1073.0	1054.6
61.46	1094.0	1054.6
61.47	1102.0	1054.6
61.48	1085.0	1054.6
61.49	1107.0	1054.6
61.5	1110.0	1054.6
61.51	1096.0	1054.5
61.52	1084.0	1054.5
61.53	1125.0	1054.5
61.54	1102.0	1054.5
61.55	1082.0	1054.5
61.56	1087.0	1054.5
61.57	1116.0	1054.5
61.58	1157.0	1054.5
61.59	1109.0	1054.5
61.6	1115.0	1054.5
61.61	1154.0	1054.5
61.62	1124.0	1054.5
61.63	1077.0	1054.5
61.64	1081.0	1054.5
61.65	1153.0	1054.5
61.66	1176.0	1054.4
61.67	1155.0	1054.4
61.68	1120.0	1054.4
61.69	1130.0	1054.4
61.7	1123.0	1054.4
61.71	1091.0	1054.4
61.72	1090.0	1054.4
61.73	1146.0	1054.4
61.74	1149.0	1054.4
61.75	1154.0	1054.4
61.76	1164.0	1054.4
61.77	1130.0	1054.4
61.78	1145.0	1054.3
61.79	1132.0	1054.3
61.8	1157.0	1054.3
61.81	1176.0	1054.3
61.82	1179.0	1054.3
61.83	1214.0	1054.3
61.84	1180.0	1054.3
61.85	1170.0	1054.3
61.86	1173.0	1054.3
61.87	1169.0	1054.3
61.88	1136.0	1054.2
61.89	1136.0	1054.2
61.9	1173.0	1054.2
61.91	1184.0	1054.2
61.92	1194.0	1054.2
61.93	1218.0	1054.2
61.94	1194.0	1054.2
61.95	1199.0	1054.2
61.96	1200.0	1054.2
61.97	1238.0	1054.1
61.98	1261.0	1054.1
61.99	1272.0	1054.1
62.0	1276.0	1054.1
62.01	1283.0	1054.1
62.02	1314.0	1054.1
62.03	1288.0	1054.1
62.04	1256.0	1054.1
62.05	1278.0	1054.0
62.06	1267.0	1054.0
62.07	1281.0	1054.0
62.08	1289.0	1054.0
62.09	1339.0	1054.0
62.1	1358.0	1054.0
62.11	1379.0	1054.0
62.12	1393.0	1053.9
62.13	1381.0	1053.9
62.14	1333.0	1053.9
62.15	1370.0	1053.9
62.16	1399.0	1053.9
62.17	1352.0	1053.9
62.18	1349.0	1053.9
62.19	1358.0	1053.8
62.2	1368.0	1053.8
62.21	1361.0	1053.8
62.22	1398.0	1053.8
62.23	1402.0	1053.8
62.24	1397.0	1053.8
62.25	1387.0	1053.7
62.26	1366.0	1053.7
62.27	1349.0	1053.7
62.28	1326.0	1053.7
62.29	1361.0	1053.7
62.3	1364.0	1053.7
62.31	1396.0	1053.6
62.32	1306.0	1053.6
62.33	1341.0	1053.6
62.34	1329.0	1053.6
62.35	1327.0	1053.6
62.36	1275.0	1053.6
62.37	1269.0	1053.5
62.38	1263.0	1053.5
62.39	1249.0	1053.5
62.4	1253.0	1053.5
62.41	1264.0	1053.5
62.42	1249.0	1053.5
62.43	1225.0	1053.4
62.44	1242.0	1053.4
62.45	1254.0	1053.4
62.46	1241.0	1053.4
62.47	1262.0	1053.4
62.48	1242.0	1053.3
62.49	1215.0	1053.3
62.5	1238.0	1053.3
62.51	1236.0	1053.3
62.52	1222.0	1053.3
62.53	1222.0	1053.2
62.54	1223.0	1053.2
62.55	1200.0	1053.2
62.56	1209.0	1053.2
62.57	1223.0	1053.2
62.58	1220.0	1053.1
62.59	1204.0	1053.1
62.6	1183.0	1053.1
62.61	1161.0	1053.1
62.62	1178.0	1053.1
62.63	1178.0	1053.0
62.64	1214.0	1053.0
62.65	1229.0	1053.0
62.66	1181.0	1053.0
62.67	1195.0	1052.9
62.68	1176.0	1052.9
62.69	1194.0	1052.9
62.7	1229.0	1052.9
62.71	1238.0	1052.9
62.72	1210.0	1052.8
62.73	1223.0	1052.8
62.74	1245.0	1052.8
62.75	1265.0	1052.8
62.76	1243.0	1052.7
62.77	1191.0	1052.7
62.78	1164.0	1052.7
62.79	1198.0	1052.7
62.8	1225.0	1052.6
62.81	1183.0	1052.6
62.82	1202.0	1052.6
62.83	1247.0	1052.6
62.84	1239.0	1052.5
62.85	1221.0	1052.5
62.86	1216.0	1052.5
62.87	1189.0	1052.5
62.88	1211.0	1052.4
62.89	1222.0	1052.4
62.9	1242.0	1052.4
62.91	1203.0	1052.4
62.92	1242.0	1052.3
62.93	1238.0	1052.3
62.94	1256.0	1052.3
62.95	1252.0	1052.3
62.96	1266.0	1052.2
62.97	1240.0	1052.2
62.98	1227.0	1052.2
62.99	1268.0	1052.2
63.0	1276.0	1052.1
63.01	1288.0	1052.1
63.02	1289.0	1052.1
63.03	1304.0	1052.0
63.04	1295.0	1052.0
63.05	1336.0	1052.0
63.06	1304.0	1052.0
63.07	1297.0	1051.9
63.08	1325.0	1051.9
63.09	1324.0	1051.9
63.1	1324.0	1051.8
63.11	1344.0	1051.8
63.12	1350.0	1051.8
63.13	1365.0	1051.8
63.14	1357.0	1051.7
63.15	1358.0	1051.7
63.16	1366.0	1051.7
63.17	1413.0	1051.6
63.18	1428.0	1051.6
63.19	1414.0	1051.6
63.2	1457.0	1051.5
63.21	1512.0	1051.5
63.22	1543.0	1051.5
63.23	1536.0	1051.5
63.24	1524.0	1051.4
63.25	1555.0	1051.4
63.26	1577.0	1051.4
63.27	1605.0	1051.3
63.28	1689.0	1051.3
63.29	1659.0	1051.3
63.3	1649.0	1051.2
63.31	1681.0	1051.2
63.32	1745.0	1051.2
63.33	1747.0	1051.1
63.34	1739.0	1051.1
63.35	1769.0	1051.1
63.36	1831.0	1051.0
63.37	1817.0	1051.0
63.38	1800.0	1051.0
63.39	1888.0	1050.9
63.4	1906.0	1050.9
63.41	1930.0	1050.9
63.42	1923.0	1050.8
63.43	1930.0	1050.8
63.44	1965.0	1050.8
63.45	2020.0	1050.7
63.46	2035.0	1050.7
63.47	2020.0	1050.7
63.48	2053.0	1050.6
63.49	2061.0	1050.6
63.5	2046.0	1050.6
63.51	2036.0	1050.5
63.52	2055.0	1050.5
63.53	2051.0	1050.4
63.54	2006.0	1050.4
63.55	2045.0	1050.4
63.56	2040.0	1050.3
63.57	2089.0	1050.3
63.58	2070.0	1050.3
63.59	2135.0	1050.2
63.6	2140.0	1050.2
63.61	2134.0	1050.2
63.62	2147.0	1050.1
63.63	2189.0	1050.1
63.64	2222.0	1050.0
63.65	2214.0	1050.0
63.66	2234.0	1050.0
63.67	2304.0	1049.9
63.68	2327.0	1049.9
63.69	2361.0	1049.8
63.7	2445.0	1049.8
63.71	2586.0	1049.8
63.72	2663.0	1049.7
63.73	2671.0	1049.7
63.74	2796.0	1049.7
63.75	2850.0	1049.6
63.76	2967.0	1049.6
63.77	3083.0	1049.5
63.78	3215.0	1049.5
63.79	3284.0	1049.5
63.8	3306.0	1049.4
63.81	3298.0	1049.4
63.82	3354.0	1049.3
63.83	3341.0	1049.3
63.84	3296.0	1049.2
63.85	3151.0	1049.2
63.86	3052.0	1049.2
63.87	2952.0	1049.1
63.88	2856.0	1049.1
63.89	2759.0	1049.0
63.9	2807.0	1049.0
63.91	2782.0	1049.0
63.92	2701.0	1048.9
63.93	2708.0	1048.9
63.94	2696.0	1048.8
63.95	2588.0	1048.8
63.96	2550.0	1048.7
63.97	2551.0	1048.7
63.98	2548.0	1048.6
63.99	2559.0	1048.6
64.0	2478.0	1048.6
64.01	2364.0	1048.5
64.02	2302.0	1048.5
64.03	2238.0	1048.4
64.04	2153.0	1048.4
64.05	2121.0	1048.3
64.06	2096.0	1048.3
64.07	2033.0	1048.2
64.08	1914.0	1048.2
64.09	1810.0	1048.2
64.1	1764.0	1048.1
64.11	1763.0	1048.1
64.12	1701.0	1048.0
64.13	1630.0	1048.0
64.14	1652.0	1047.9
64.15	1624.0	1047.9
64.16	1558.0	1047.8
64.17	1514.0	1047.8
64.18	1470.0	1047.7
64.19	1494.0	1047.7
64.2	1478.0	1047.6
64.21	1437.0	1047.6
64.22	1404.0	1047.5
64.23	1360.0	1047.5
64.24	1399.0	1047.4
64.25	1355.0	1047.4
64.26	1342.0	1047.3
64.27	1327.0	1047.3
64.28	1305.0	1047.2
64.29	1291.0	1047.2
64.3	1277.0	1047.1
64.31	1286.0	1047.1
64.32	1299.0	1047.0
64.33	1291.0	1047.0
64.34	1264.0	1046.9
64.35	1283.0	1046.9
64.36	1251.0	1046.8
64.37	1300.0	1046.8
64.38	1242.0	1046.7
64.39	1251.0	1046.7
64.4	1206.0	1046.6
64.41	1240.0	1046.6
64.42	1210.0	1046.5
64.43	1181.0	1046.5
64.44	1182.0	1046.4
64.45	1171.0	1046.4
64.46	1175.0	1046.3
64.47	1192.0	1046.3
64.48	1171.0	1046.2
64.49	1159.0	1046.2
64.5	1171.0	1046.1
64.51	1183.0	1046.1
64.52	1153.0	1046.0
64.53	1157.0	1046.0
64.54	1153.0	1045.9
64.55	1114.0	1045.8
64.56	1098.0	1045.8
64.57	1157.0	1045.7
64.58	1135.0	1045.7
64.59	1180.0	1045.6
64.6	1157.0	1045.6
64.61	1145.0	1045.5
64.62	1107.0	1045.5
64.63	1103.0	1045.4
64.64	1114.0	1045.3
64.65	1129.0	1045.3
64.66	1131.0	1045.2
64.67	1112.0	1045.2
64.68	1131.0	1045.1
64.69	1144.0	1045.1
64.7	1138.0	1045.0
64.71	1123.0	1044.9
64.72	1102.0	1044.9
64.73	1090.0	1044.8
64.74	1105.0	1044.8
64.75	1115.0	1044.7
64.76	1105.0	1044.7
64.77	1125.0	1044.6
64.78	1087.0	1044.5
64.79	1104.0	1044.5
64.8	1097.0	1044.4
64.81	1045.0	1044.4
64.82	1075.0	1044.3
64.83	1082.0	1044.2
64.84	1047.0	1044.2
64.85	1084.0	1044.1
64.86	1134.0	1044.1
64.87	1108.0	1044.0
64.88	1101.0	1043.9
64.89	1106.0	1043.9
64.9	1110.0	1043.8
64.91	1066.0	1043.8
64.92	1086.0	1043.7
64.93	1135.0	1043.6
64.94	1097.0	1043.6
64.95	1063.0	1043.5
64.96	1081.0	1043.4
64.97	1122.0	1043.4
64.98	1097.0	1043.3
64.99	1108.0	1043.3
65.0	1124.0	1043.2
65.01	1099.0	1043.1
65.02	1101.0	1043.1
65.03	1060.0	1043.0
65.04	1047.0	1042.9
65.05	1043.0	1042.9
65.06	1071.0	1042.8
65.07	1090.0	1042.7
65.08	1100.0	1042.7
65.09	1073.0	1042.6
65.1	1047.0	1042.5
65.11	1086.0	1042.5
65.12	1101.0	1042.4
65.13	1076.0	1042.4
65.14	1062.0	1042.3
65.15	1088.0	1042.2
65.16	1079.0	1042.2
65.17	1077.0	1042.1
65.18	1047.0	1042.0
65.19	1099.0	1042.0
65.2	1092.0	1041.9
65.21	1040.0	1041.8
65.22	1058.0	1041.7
65.23	1064.0	1041.7
65.24	1069.0	1041.6
65.25	1078.0	1041.5
65.26	1111.0	1041.5
65.27	1123.0	1041.4
65.28	1044.0	1041.3
65.29	1080.0	1041.3
65.3	1088.0	1041.2
65.31	1068.0	1041.1
65.32	1056.0	1041.1
65.33	1081.0	1041.0
65.34	1069.0	1040.9
65.35	1053.0	1040.9
65.36	1053.0	1040.8
65.37	1067.0	1040.7
65.38	1057.0	1040.6
65.39	1078.0	1040.6
65.4	1050.0	1040.5
65.41	1082.0	1040.4
65.42	1086.0	1040.4
65.43	1104.0	1040.3
65.44	1086.0	1040.2
65.45	1011.0	1040.1
65.46	1055.0	1040.1
65.47	1110.0	1040.0
65.48	1072.0	1039.9
65.49	1039.0	1039.8
65.5	1064.0	1039.8
65.51	1109.0	1039.7
65.52	1075.0	1039.6
65.53	1048.0	1039.5
65.54	1057.0	1039.5
65.55	1053.0	1039.4
65.56	1035.0	1039.3
65.57	1025.0	1039.2
65.58	1016.0	1039.2
65.59	1060.0	1039.1
65.6	1078.0	1039.0
65.61	1089.0	1038.9
65.62	1063.0	1038.9
65.63	1047.0	1038.8
65.64	1101.0	1038.7
65.65	1070.0	1038.6
65.66	1099.0	1038.6
65.67	1059.0	1038.5
65.68	1059.0	1038.4
65.69	1087.0	1038.3
65.7	1085.0	1038.3
65.71	1073.0	1038.2
65.72	1088.0	1038.1
65.73	1086.0	1038.0
65.74	1085.0	1037.9
65.75	1060.0	1037.9
65.76	1064.0	1037.8
65.77	1054.0	1037.7
65.78	1032.0	1037.6
65.79	1078.0	1037.5
65.8	1062.0	1037.5
65.81	1076.0	1037.4
65.82	1072.0	1037.3
65.83	1059.0	1037.2
65.84	1068.0	1037.1
65.85	1042.0	1037.1
65.86	1086.0	1037.0
65.87	1076.0	1036.9
65.88	1093.0	1036.8
65.89	1074.0	1036.7
65.9	1080.0	1036.7
65.91	1033.0	1036.6
65.92	1085.0	1036.5
65.93	1062.0	1036.4
65.94	1068.0	1036.3
65.95	1081.0	1036.2
65.96	1047.0	1036.2
65.97	1061.0	1036.1
65.98	1077.0	1036.0
65.99	1098.0	1035.9
66.0	1072.0	1035.8
66.01	1046.0	1035.7
66.02	1043.0	1035.6
66.03	1076.0	1035.6
66.04	1044.0	1035.5
66.05	1036.0	1035.4
66.06	1054.0	1035.3
66.07	1038.0	1035.2
66.08	1057.0	1035.1
66.09	1073.0	1035.0
66.1	1143.0	1035.0
66.11	1093.0	1034.9
66.12	1031.0	1034.8
66.13	1055.0	1034.7
66.14	1052.0	1034.6
66.15	1067.0	1034.5
66.16	1086.0	1034.4
66.17	1082.0	1034.3
66.18	1078.0	1034.3
66.19	1068.0	1034.2
66.2	1094.0	1034.1
66.21	1089.0	1034.0
66.22	1094.0	1033.9
66.23	1032.0	1033.8
66.24	1037.0	1033.7
66.25	1053.0	1033.6
66.26	1008.0	1033.5
66.27	1098.0	1033.5
66.28	1070.0	1033.4
66.29	1058.0	1033.3
66.3	1092.0	1033.2
66.31	1119.0	1033.1
66.32	1108.0	1033.0
66.33	1054.0	1032.9
66.34	1078.0	1032.8
66.35	1091.0	1032.7
66.36	1081.0	1032.6
66.37	1074.0	1032.5
66.38	1085.0	1032.4
66.39	1093.0	1032.4
66.4	1101.0	1032.3
66.41	1095.0	1032.2
66.42	1109.0	1032.1
66.43	1090.0	1032.0
66.44	1052.0	1031.9
66.45	1080.0	1031.8
66.46	1076.0	1031.7
66.47	1040.0	1031.6
66.48	1081.0	1031.5
66.49	1106.0	1031.4
66.5	1101.0	1031.3
66.51	1088.0	1031.2
66.52	1093.0	1031.1
66.53	1072.0	1031.0
66.54	1103.0	1030.9
66.55	1095.0	1030.8
66.56	1102.0	1030.7
66.57	1073.0	1030.6
66.58	1067.0	1030.5
66.59	1090.0	1030.4
66.6	1111.0	1030.3
66.61	1088.0	1030.2
66.62	1076.0	1030.2
66.63	1075.0	1030.1
66.64	1107.0	1030.0
66.65	1102.0	1029.9
66.66	1111.0	1029.8
66.67	1107.0	1029.7
66.68	1125.0	1029.6
66.69	1181.0	1029.5
66.7	1141.0	1029.4
66.71	1118.0	1029.3
66.72	1084.0	1029.2
66.73	1135.0	1029.1
66.74	1152.0	1029.0
66.75	1129.0	1028.9
66.76	1122.0	1028.8
66.77	1183.0	1028.7
66.78	1187.0	1028.6
66.79	1170.0	1028.5
66.8	1172.0	1028.4
66.81	1178.0	1028.3
66.82	1191.0	1028.2
66.83	1196.0	1028.1
66.84	1167.0	1028.0
66.85	1181.0	1027.9
66.86	1196.0	1027.7
66.87	1211.0	1027.6
66.88	1263.0	1027.5
66.89	1266.0	1027.4
66.9	1229.0	1027.3
66.91	1229.0	1027.2
66.92	1215.0	1027.1
66.93	1248.0	1027.0
66.94	1272.0	1026.9
66.95	1297.0	1026.8
66.96	1306.0	1026.7
66.97	1320.0	1026.6
66.98	1364.0	1026.5
66.99	1390.0	1026.4
67.0	1378.0	1026.3
67.01	1436.0	1026.2
67.02	1463.0	1026.1
67.03	1524.0	1026.0
67.04	1583.0	1025.9
67.05	1584.0	1025.8
67.06	1612.0	1025.7
67.07	1643.0	1025.6
67.08	1678.0	1025.5
67.09	1749.0	1025.4
67.1	1752.0	1025.2
67.11	1751.0	1025.1
67.12	1755.0	1025.0
67.13	1741.0	1024.9
67.14	1721.0	1024.8
67.15	1644.0	1024.7
67.16	1679.0	1024.6
67.17	1644.0	1024.5
67.18	1618.0	1024.4
67.19	1597.0	1024.3
67.2	1567.0	1024.2
67.21	1584.0	1024.1
67.22	1564.0	1024.0
67.23	1535.0	1023.9
67.24	1544.0	1023.7
67.25	1577.0	1023.6
67.26	1544.0	1023.5
67.27	1538.0	1023.4
67.28	1517.0	1023.3
67.29	1492.0	1023.2
67.3	1508.0	1023.1
67.31	1533.0	1023.0
67.32	1455.0	1022.9
67.33	1471.0	1022.8
67.34	1434.0	1022.7
67.35	1411.0	1022.6
67.36	1406.0	1022.4
67.37	1323.0	1022.3
67.38	1297.0	1022.2
67.39	1254.0	1022.1
67.4	1225.0	1022.0
67.41	1239.0	1021.9
67.42	1227.0	1021.8
67.43	1247.0	1021.7
67.44	1211.0	1021.6
67.45	1193.0	1021.5
67.46	1204.0	1021.3
67.47	1208.0	1021.2
67.48	1186.0	1021.1
67.49	1160.0	1021.0
67.5	1140.0	1020.9
67.51	1099.0	1020.8
67.52	1078.0	1020.7
67.53	1121.0	1020.6
67.54	1101.0	1020.5
67.55	1099.0	1020.3
67.56	1100.0	1020.2
67.57	1092.0	1020.1
67.58	1114.0	1020.0
67.59	1131.0	1019.9
67.6	1068.0	1019.8
67.61	1106.0	1019.7
67.62	1101.0	1019.6
67.63	1116.0	1019.4
67.64	1073.0	1019.3
67.65	1060.0	1019.2
67.66	1084.0	1019.1
67.67	1081.0	1019.0
67.68	1091.0	1018.9
67.69	1081.0	1018.8
67.7	1033.0	1018.7
67.71	1044.0	1018.5
67.72	1098.0	1018.4
67.73	1090.0	1018.3
67.74	1044.0	1018.2
67.75	1022.0	1018.1
67.76	1084.0	1018.0
67.77	1069.0	1017.9
67.78	1091.0	1017.7
67.79	1096.0	1017.6
67.8	1099.0	1017.5
67.81	1095.0	1017.4
67.82	1044.0	1017.3
67.83	1070.0	1017.2
67.84	1112.0	1017.1
67.85	1080.0	1016.9
67.86	1065.0	1016.8
67.87	1066.0	1016.7
67.88	1045.0	1016.6
67.89	1036.0	1016.5
67.9	1022.0	1016.4
67.91	1063.0	1016.3
67.92	1094.0	1016.1
67.93	1083.0	1016.0
67.94	1042.0	1015.9
67.95	1057.0	1015.8
67.96	1057.0	1015.7
67.97	1054.0	1015.6
67.98	1008.0	1015.5
67.99	1013.0	1015.3
68.0	1055.0	1015.2
68.01	1088.0	1015.1
68.02	1035.0	1015.0
68.03	1018.0	1014.9
68.04	987.0	1014.8
68.05	1091.0	1014.6
68.06	1068.0	1014.5
68.07	1079.0	1014.4
68.08	1106.0	1014.3
68.09	1107.0	1014.2
68.1	1086.0	1014.1
68.11	1048.0	1014.0
68.12	1035.0	1013.8
68.13	1061.0	1013.7
68.14	1075.0	1013.6
68.15	1022.0	1013.5
68.16	991.0	1013.4
68.17	1035.0	1013.3
68.18	1059.0	1013.1
68.19	1062.0	1013.0
68.2	1065.0	1012.9
68.21	1061.0	1012.8
68.22	1071.0	1012.7
68.23	1044.0	1012.6
68.24	1047.0	1012.4
68.25	1083.0	1012.3
68.26	1055.0	1012.2
68.27	1092.0	1012.1
68.28	1080.0	1012.0
68.29	1047.0	1011.9
68.3	1030.0	1011.7
68.31	1052.0	1011.6
68.32	1082.0	1011.5
68.33	1067.0	1011.4
68.34	1071.0	1011.3
68.35	1068.0	1011.2
68.36	1070.0	1011.0
68.37	1044.0	1010.9
68.38	1043.0	1010.8
68.39	1093.0	1010.7
68.4	1077.0	1010.6
68.41	1055.0	1010.5
68.42	1093.0	1010.3
68.43	1090.0	1010.2
68.44	1077.0	1010.1
68.45	1093.0	1010.0
68.46	1075.0	1009.9
68.47	1063.0	1009.7
68.48	1069.0	1009.6
68.49	1058.0	1009.5
68.5	1069.0	1009.4
68.51	1060.0	1009.3
68.52	1068.0	1009.2
68.53	1069.0	1009.0
68.54	1081.0	1008.9
68.55	1087.0	1008.8
68.56	1111.0	1008.7
68.57	1103.0	1008.6
68.58	1082.0	1008.5
68.59	1096.0	1008.3
68.6	1082.0	1008.2
68.61	1059.0	1008.1
68.62	1044.0	1008.0
68.63	1077.0	1007.9
68.64	1067.0	1007.8
68.65	1075.0	1007.6
68.66	1032.0	1007.5
68.67	1046.0	1007.4
68.68	1021.0	1007.3
68.69	1051.0	1007.2
68.7	1066.0	1007.0
68.71	1110.0	1006.9
68.72	1082.0	1006.8
68.73	1050.0	1006.7
68.74	1092.0	1006.6
68.75	1056.0	1006.5
68.76	1050.0	1006.3
68.77	1059.0	1006.2
68.78	1028.0	1006.1
68.79	1029.0	1006.0
68.8	1066.0	1005.9
68.81	1077.0	1005.8
68.82	1099.0	1005.6
68.83	1087.0	1005.5
68.84	1024.0	1005.4
68.85	995.0	1005.3
68.86	1022.0	1005.2
68.87	1038.0	1005.1
68.88	1051.0	1004.9
68.89	1007.0	1004.8
68.9	999.0	1004.7
68.91	1035.0	1004.6
68.92	1046.0	1004.5
68.93	1037.0	1004.4
68.94	1049.0	1004.2
68.95	1056.0	1004.1
68.96	1080.0	1004.0
68.97	1095.0	1003.9
68.98	1075.0	1003.8
68.99	1059.0	1003.6
69.0	1056.0	1003.5
69.01	1058.0	1003.4
69.02	1084.0	1003.3
69.03	1084.0	1003.2
69.04	1055.0	1003.1
69.05	1064.0	1002.9
69.06	1032.0	1002.8
69.07	1049.0	1002.7
69.08	1043.0	1002.6
69.09	1030.0	1002.5
69.1	1028.0	1002.4
69.11	1035.0	1002.2
69.12	1046.0	1002.1
69.13	1054.0	1002.0
69.14	1013.0	1001.9
69.15	996.0	1001.8
69.16	1055.0	1001.7
69.17	1046.0	1001.6
69.18	1024.0	1001.4
69.19	1017.0	1001.3
69.2	1003.0	1001.2
69.21	1005.0	1001.1
69.22	1015.0	1001.0
69.23	1027.0	1000.9
69.24	1029.0	1000.7
69.25	1022.0	1000.6
69.26	1046.0	1000.5
69.27	1025.0	1000.4
69.28	1043.0	1000.3
69.29	1034.0	1000.2
69.3	1030.0	1000.0
69.31	998.0	999.9
69.32	1011.0	999.8
69.33	999.0	999.7
69.34	1012.0	999.6
69.35	1035.0	999.5
69.36	1014.0	999.4
69.37	1005.0	999.2
69.38	1011.0	999.1
69.39	1023.0	999.0
69.4	1064.0	998.9
69.41	1042.0	998.8
69.42	1044.0	998.7
69.43	1041.0	998.6
69.44	1043.0	998.4
69.45	1031.0	998.3
69.46	1057.0	998.2
69.47	1029.0	998.1
69.48	1014.0	998.0
69.49	1037.0	997.9
69.5	1074.0	997.8
69.51	1021.0	997.6
69.52	1008.0	997.5
69.53	1027.0	997.4
69.54	1044.0	997.3
69.55	1038.0	997.2
69.56	1025.0	997.1
69.57	1008.0	997.0
69.58	1021.0	996.8
69.59	1038.0	996.7
69.6	1000.0	996.6
69.61	1015.0	996.5
69.62	1045.0	996.4
69.63	1057.0	996.3
69.64	1060.0	996.2
69.65	1039.0	996.1
69.66	1015.0	995.9
69.67	994.0	995.8
69.68	1020.0	995.7
69.69	1023.0	995.6
69.7	974.0	995.5
69.71	998.0	995.4
69.72	1023.0	995.3
69.73	1002.0	995.2
69.74	1034.0	995.0
69.75	1057.0	994.9
69.76	1016.0	994.8
69.77	996.0	994.7
69.78	1003.0	994.6
69.79	1037.0	994.5
69.8	1060.0	994.4
69.81	1051.0	994.3
69.82	1024.0	994.2
69.83	1013.0	994.0
69.84	1025.0	993.9
69.85	1000.0	993.8
69.86	996.0	993.7
69.87	1001.0	993.6
69.88	1008.0	993.5
69.89	1036.0	993.4
69.9	1008.0	993.3
69.91	1020.0	993.2
69.92	990.0	993.0
69.93	1025.0	992.9
69.94	1043.0	992.8
69.95	997.0	992.7
69.96	1005.0	992.6
69.97	1012.0	992.5
69.98	1000.0	992.4
69.99	1006.0	992.3
70.0	1002.0	992.2
70.01	995.0	992.1
70.02	1019.0	992.0
70.03	1036.0	991.8
70.04	1002.0	991.7
70.05	978.0	991.6
70.06	1023.0	991.5
70.07	1034.0	991.4
70.08	1001.0	991.3
70.09	989.0	991.2
70.1	1033.0	991.1
70.11	1037.0	991.0
70.12	989.0	990.9
70.13	1000.0	990.8
70.14	1006.0	990.7
70.15	983.0	990.6
70.16	1001.0	990.5
70.17	1003.0	990.3
70.18	1014.0	990.2
70.19	1044.0	990.1
70.2	1038.0	990.0
70.21	1049.0	989.9
70.22	1031.0	989.8
70.23	999.0	989.7
70.24	1016.0	989.6
70.25	1033.0	989.5
70.26	1006.0	989.4
70.27	994.0	989.3
70.28	1002.0	989.2
70.29	1010.0	989.1
70.3	1028.0	989.0
70.31	1029.0	988.9
70.32	1030.0	988.8
70.33	1009.0	988.7
70.34	1001.0	988.6
70.35	1036.0	988.5
70.36	1025.0	988.4
70.37	1001.0	988.2
70.38	1019.0	988.1
70.39	1010.0	988.0
70.4	1036.0	987.9
70.41	1046.0	987.8
70.42	1007.0	987.7
70.43	1010.0	987.6
70.44	1004.0	987.5
70.45	1024.0	987.4
70.46	1064.0	987.3
70.47	1052.0	987.2
70.48	1005.0	987.1
70.49	1013.0	987.0
70.5	1043.0	986.9
70.51	1052.0	986.8
70.52	1036.0	986.7
70.53	981.0	986.6
70.54	1011.0	986.5
70.55	1017.0	986.4
70.56	1003.0	986.3
70.57	1031.0	986.2
70.58	1000.0	986.1
70.59	1057.0	986.0
70.6	1024.0	985.9
70.61	989.0	985.8
70.62	977.0	985.7
70.63	983.0	985.6
70.64	999.0	985.5
70.65	1001.0	985.4
70.66	1011.0	985.3
70.67	1004.0	985.2
70.68	989.0	985.1
70.69	983.0	985.0
70.7	1041.0	984.9
70.71	1034.0	984.8
70.72	1018.0	984.7
70.73	1019.0	984.6
70.74	965.0	984.5
70.75	991.0	984.4
70.76	1019.0	984.4
70.77	995.0	984.3
70.78	995.0	984.2
70.79	983.0	984.1
70.8	998.0	984.0
70.81	977.0	983.9
70.82	1003.0	983.8
70.83	1020.0	983.7
70.84	1028.0	983.6
70.85	1015.0	983.5
70.86	1008.0	983.4
70.87	1017.0	983.3
70.88	1049.0	983.2
70.89	1028.0	983.1
70.9	991.0	983.0
70.91	1031.0	982.9
70.92	1023.0	982.8
70.93	1026.0	982.7
70.94	1059.0	982.7
70.95	1018.0	982.6
70.96	1009.0	982.5
70.97	1008.0	982.4
70.98	1013.0	982.3
70.99	1055.0	982.2
71.0	1024.0	982.1
71.01	997.0	982.0
71.02	997.0	981.9
71.03	1002.0	981.8
71.04	1029.0	981.7
71.05	1002.0	981.7
71.06	1053.0	981.6
71.07	1049.0	981.5
71.08	1013.0	981.4
71.09	1016.0	981.3
71.1	1023.0	981.2
71.11	1045.0	981.1
71.12	1068.0	981.0
71.13	1043.0	980.9
71.14	1024.0	980.8
71.15	1001.0	980.8
71.16	1005.0	980.7
71.17	1005.0	980.6
71.18	980.0	980.5
71.19	1032.0	980.4
71.2	1005.0	980.3
71.21	998.0	980.2
71.22	979.0	980.2
71.23	1022.0	980.1
71.24	1028.0	980.0
71.25	1010.0	979.9
71.26	1008.0	979.8
71.27	1010.0	979.7
71.28	996.0	979.6
71.29	977.0	979.6
71.3	1023.0	979.5
71.31	1008.0	979.4
71.32	1017.0	979.3
71.33	1009.0	979.2
71.34	1002.0	979.1
71.35	966.0	979.1
71.36	989.0	979.0
71.37	1015.0	978.9
71.38	1015.0	978.8
71.39	1015.0	978.7
71.4	1034.0	978.6
71.41	1040.0	978.6
71.42	1005.0	978.5
71.43	1021.0	978.4
71.44	1017.0	978.3
71.45	1024.0	978.2
71.46	1025.0	978.2
71.47	1016.0	978.1
71.48	1033.0	978.0
71.49	1043.0	977.9
71.5	1069.0	977.8
71.51	1039.0	977.8
71.52	1015.0	977.7
71.53	1031.0	977.6
71.54	1019.0	977.5
71.55	1015.0	977.5
71.56	1021.0	977.4
71.57	1023.0	977.3
71.58	1012.0	977.2
71.59	1024.0	977.1
71.6	1049.0	977.1
71.61	1058.0	977.0
71.62	1039.0	976.9
71.63	1017.0	976.8
71.64	1054.0	976.8
71.65	1006.0	976.7
71.66	1020.0	976.6
71.67	1016.0	976.5
71.68	998.0	976.5
71.69	1019.0	976.4
71.7	1050.0	976.3
71.71	1069.0	976.3
71.72	1040.0	976.2
71.73	1040.0	976.1
71.74	1047.0	976.0
71.75	1026.0	976.0
71.76	1002.0	975.9
71.77	1042.0	975.8
71.78	1041.0	975.8
71.79	1034.0	975.7
71.8	1032.0	975.6
71.81	1049.0	975.5
71.82	1055.0	975.5
71.83	1013.0	975.4
71.84	994.0	975.3
71.85	1007.0	975.3
71.86	1031.0	975.2
71.87	1011.0	975.1
71.88	995.0	975.1
71.89	996.0	975.0
71.9	1021.0	974.9
71.91	987.0	974.9
71.92	986.0	974.8
71.93	996.0	974.7
71.94	1049.0	974.7
71.95	1023.0	974.6
71.96	1003.0	974.5
71.97	992.0	974.5
71.98	1002.0	974.4
71.99	1039.0	974.3
72.0	1037.0	974.3
72.01	1038.0	974.2
72.02	1009.0	974.1
72.03	990.0	974.1
72.04	960.0	974.0
72.05	992.0	974.0
72.06	1034.0	973.9
72.07	1001.0	973.8
72.08	990.0	973.8
72.09	1011.0	973.7
72.1	1019.0	973.6
72.11	1003.0	973.6
72.12	991.0	973.5
72.13	991.0	973.5
72.14	979.0	973.4
72.15	983.0	973.3
72.16	959.0	973.3
72.17	1014.0	973.2
72.18	1033.0	973.2
72.19	987.0	973.1
72.2	961.0	973.1
72.21	1001.0	973.0
72.22	985.0	972.9
72.23	1001.0	972.9
72.24	1013.0	972.8
72.25	1047.0	972.8
72.26	1001.0	972.7
72.27	1005.0	972.7
72.28	1058.0	972.6
72.29	1045.0	972.6
72.3	999.0	972.5
72.31	989.0	972.4
72.32	979.0	972.4
72.33	1006.0	972.3
72.34	1000.0	972.3
72.35	963.0	972.2
72.36	994.0	972.2
72.37	1052.0	972.1
72.38	1027.0	972.1
72.39	995.0	972.0
72.4	993.0	972.0
72.41	988.0	971.9
72.42	959.0	971.9
72.43	992.0	971.8
72.44	999.0	971.8
72.45	974.0	971.7
72.46	960.0	971.7
72.47	966.0	971.6
72.48	1012.0	971.6
72.49	1007.0	971.5
72.5	1046.0	971.5
72.51	1010.0	971.4
72.52	993.0	971.4
72.53	991.0	971.3
72.54	983.0	971.3
72.55	985.0	971.3
72.56	1014.0	971.2
72.57	1002.0	971.2
72.58	995.0	971.1
72.59	1013.0	971.1
72.6	992.0	971.0
72.61	995.0	971.0
72.62	989.0	971.0
72.63	1038.0	970.9
72.64	1036.0	970.9
72.65	966.0	970.8
72.66	987.0	970.8
72.67	1001.0	970.7
72.68	1006.0	970.7
72.69	1001.0	970.7
72.7	1038.0	970.6
72.71	1000.0	970.6
72.72	967.0	970.5
72.73	990.0	970.5
72.74	989.0	970.5
72.75	983.0	970.4
72.76	966.0	970.4
72.77	978.0	970.4
72.78	986.0	970.3
72.79	1027.0	970.3
72.8	1035.0	970.3
72.81	1035.0	970.2
72.82	989.0	970.2
72.83	978.0	970.1
72.84	1001.0	970.1
72.85	1051.0	970.1
72.86	1053.0	970.0
72.87	1000.0	970.0
72.88	978.0	970.0
72.89	1013.0	969.9
72.9	976.0	969.9
72.91	976.0	969.9
72.92	991.0	969.9
72.93	975.0	969.8
72.94	961.0	969.8
72.95	986.0	969.8
72.96	981.0	969.7
72.97	971.0	969.7
72.98	989.0	969.7
72.99	1014.0	969.7
73.0	998.0	969.6
73.01	1002.0	969.6
73.02	989.0	969.6
73.03	940.0	969.5
73.04	969.0	969.5
73.05	984.0	969.5
73.06	1026.0	969.5
73.07	1026.0	969.4
73.08	1028.0	969.4
73.09	1008.0	969.4
73.1	1025.0	969.4
73.11	1011.0	969.3
73.12	999.0	969.3
73.13	1012.0	969.3
73.14	977.0	969.3
73.15	1002.0	969.3
73.16	1018.0	969.2
73.17	1005.0	969.2
73.18	994.0	969.2
73.19	961.0	969.2
73.2	993.0	969.2
73.21	1020.0	969.1
73.22	990.0	969.1
73.23	978.0	969.1
73.24	988.0	969.1
73.25	988.0	969.1
73.26	1008.0	969.0
73.27	1031.0	969.0
73.28	960.0	969.0
73.29	980.0	969.0
73.3	1022.0	969.0
73.31	1019.0	969.0
73.32	986.0	969.0
73.33	976.0	968.9
73.34	995.0	968.9
73.35	980.0	968.9
73.36	973.0	968.9
73.37	990.0	968.9
73.38	987.0	968.9
73.39	963.0	968.9
73.4	956.0	968.9
73.41	970.0	968.8
73.42	1004.0	968.8
73.43	1006.0	968.8
73.44	1011.0	968.8
73.45	992.0	968.8
73.46	951.0	968.8
73.47	975.0	968.8
73.48	993.0	968.8
73.49	972.0	968.8
73.5	954.0	968.8
73.51	964.0	968.7
73.52	987.0	968.7
73.53	1017.0	968.7
73.54	1039.0	968.7
73.55	992.0	968.7
73.56	981.0	968.7
73.57	976.0	968.7
73.58	949.0	968.7
73.59	955.0	968.7
73.6	982.0	968.7
73.61	980.0	968.7
73.62	965.0	968.7
73.63	961.0	968.7
73.64	1013.0	968.7
73.65	1016.0	968.7
73.66	985.0	968.7
73.67	977.0	968.7
73.68	994.0	968.7
73.69	1019.0	968.7
73.7	1010.0	968.7
73.71	981.0	968.7
73.72	979.0	968.7
73.73	995.0	968.7
73.74	988.0	968.7
73.75	971.0	968.7
73.76	951.0	968.7
73.77	969.0	968.7
73.78	990.0	968.7
73.79	997.0	968.7
73.8	1014.0	968.7
73.81	1002.0	968.7
73.82	984.0	968.7
73.83	969.0	968.7
73.84	980.0	968.7
73.85	979.0	968.7
73.86	982.0	968.7
73.87	990.0	968.7
73.88	942.0	968.7
73.89	945.0	968.7
73.9	954.0	968.7
73.91	979.0	968.7
73.92	984.0	968.7
73.93	1022.0	968.7
73.94	979.0	968.7
73.95	977.0	968.7
73.96	1003.0	968.8
73.97	940.0	968.8
73.98	977.0	968.8
73.99	1001.0	968.8
74.0	1020.0	968.8
74.01	1039.0	968.8
74.02	1015.0	968.8
74.03	993.0	968.8
74.04	975.0	968.8
74.05	991.0	968.8
74.06	994.0	968.8
74.07	999.0	968.9
74.08	986.0	968.9
74.09	983.0	968.9
74.1	970.0	968.9
74.11	995.0	968.9
74.12	1017.0	968.9
74.13	1013.0	968.9
74.14	1004.0	968.9
74.15	1017.0	968.9
74.16	987.0	969.0
74.17	979.0	969.0
74.18	999.0	969.0
74.19	1002.0	969.0
74.2	978.0	969.0
74.21	991.0	969.0
74.22	988.0	969.0
74.23	1014.0	969.1
74.24	1037.0	969.1
74.25	1027.0	969.1
74.26	1022.0	969.1
74.27	1026.0	969.1
74.28	1012.0	969.1
74.29	1036.0	969.2
74.3	997.0	969.2
74.31	1008.0	969.2
74.32	1048.0	969.2
74.33	965.0	969.2
74.34	961.0	969.2
74.35	968.0	969.3
74.36	973.0	969.3
74.37	978.0	969.3
74.38	1025.0	969.3
74.39	1030.0	969.3
74.4	1000.0	969.4
74.41	980.0	969.4
74.42	970.0	969.4
74.43	983.0	969.4
74.44	996.0	969.4
74.45	1015.0	969.5
74.46	1023.0	969.5
74.47	1017.0	969.5
74.48	1000.0	969.5
74.49	993.0	969.5
74.5	992.0	969.6
74.51	1027.0	969.6
74.52	1035.0	969.6
74.53	988.0	969.6
74.54	976.0	969.6
74.55	1002.0	969.7
74.56	1033.0	969.7
74.57	982.0	969.7
74.58	1017.0	969.7
74.59	1008.0	969.8
74.6	1013.0	969.8
74.61	1016.0	969.8
74.62	1009.0	969.8
74.63	1002.0	969.9
74.64	1010.0	969.9
74.65	1018.0	969.9
74.66	1000.0	969.9
74.67	986.0	970.0
74.68	987.0	970.0
74.69	981.0	970.0
74.7	988.0	970.0
74.71	999.0	970.1
74.72	989.0	970.1
74.73	1010.0	970.1
74.74	994.0	970.2
74.75	982.0	970.2
74.76	952.0	970.2
74.77	962.0	970.2
74.78	1011.0	970.3
74.79	1030.0	970.3
74.8	1025.0	970.3
74.81	1021.0	970.3
74.82	954.0	970.4
74.83	988.0	970.4
74.84	1003.0	970.4
74.85	990.0	970.5
74.86	1023.0	970.5
74.87	1022.0	970.5
74.88	989.0	970.6
74.89	987.0	970.6
74.9	1016.0	970.6
74.91	1041.0	970.6
74.92	1044.0	970.7
74.93	1008.0	970.7
74.94	955.0	970.7
74.95	965.0	970.8
74.96	1011.0	970.8
74.97	1037.0	970.8
74.98	996.0	970.9
74.99	1028.0	970.9
75.0	1025.0	970.9
75.01	1053.0	971.0
75.02	1066.0	971.0
75.03	1035.0	971.0
75.04	1059.0	971.1
75.05	1016.0	971.1
75.06	996.0	971.1
75.07	1031.0	971.2
75.08	1065.0	971.2
75.09	1048.0	971.2
75.1	1026.0	971.3
75.11	1024.0	971.3
75.12	1009.0	971.3
75.13	1037.0	971.4
75.14	1058.0	971.4
75.15	1075.0	971.4
75.16	1045.0	971.5
75.17	1068.0	971.5
75.18	1015.0	971.5
75.19	1041.0	971.6
75.2	1020.0	971.6
75.21	1047.0	971.6
75.22	1032.0	971.7
75.23	1033.0	971.7
75.24	1023.0	971.7
75.25	1026.0	971.8
75.26	1042.0	971.8
75.27	1011.0	971.9
75.28	1045.0	971.9
75.29	1070.0	971.9
75.3	1061.0	972.0
75.31	1040.0	972.0
75.32	1021.0	972.0
75.33	1047.0	972.1
75.34	1058.0	972.1
75.35	1044.0	972.2
75.36	1072.0	972.2
75.37	1068.0	972.2
75.38	1055.0	972.3
75.39	1067.0	972.3
75.4	1093.0	972.3
75.41	1073.0	972.4
75.42	1075.0	972.4
75.43	1121.0	972.5
75.44	1140.0	972.5
75.45	1135.0	972.5
75.46	1108.0	972.6
75.47	1122.0	972.6
75.48	1154.0	972.7
75.49	1148.0	972.7
75.5	1183.0	972.7
75.51	1211.0	972.8
75.52	1232.0	972.8
75.53	1247.0	972.9
75.54	1267.0	972.9
75.55	1239.0	972.9
75.56	1197.0	973.0
75.57	1213.0	973.0
75.58	1242.0	973.1
75.59	1230.0	973.1
75.6	1228.0	973.1
75.61	1197.0	973.2
75.62	1216.0	973.2
75.63	1239.0	973.3
75.64	1212.0	973.3
75.65	1227.0	973.3
75.66	1176.0	973.4
75.67	1156.0	973.4
75.68	1170.0	973.5
75.69	1177.0	973.5
75.7	1189.0	973.5
75.71	1190.0	973.6
75.72	1191.0	973.6
75.73	1178.0	973.7
75.74	1159.0	973.7
75.75	1217.0	973.8
75.76	1242.0	973.8
75.77	1195.0	973.8
75.78	1203.0	973.9
75.79	1158.0	973.9
75.8	1179.0	974.0
75.81	1186.0	974.0
75.82	1208.0	974.1
75.83	1158.0	974.1
75.84	1165.0	974.1
75.85	1160.0	974.2
75.86	1166.0	974.2
75.87	1160.0	974.3
75.88	1139.0	974.3
75.89	1149.0	974.4
75.9	1149.0	974.4
75.91	1169.0	974.4
75.92	1149.0	974.5
75.93	1131.0	974.5
75.94	1138.0	974.6
75.95	1164.0	974.6
75.96	1177.0	974.7
75.97	1132.0	974.7
75.98	1145.0	974.7
75.99	1143.0	974.8
76.0	1158.0	974.8
76.01	1107.0	974.9
76.02	1085.0	974.9
76.03	1123.0	975.0
76.04	1108.0	975.0
76.05	1082.0	975.0
76.06	1144.0	975.1
76.07	1121.0	975.1
76.08	1145.0	975.2
76.09	1134.0	975.2
76.1	1127.0	975.3
76.11	1105.0	975.3
76.12	1104.0	975.4
76.13	1111.0	975.4
76.14	1106.0	975.4
76.15	1102.0	975.5
76.16	1074.0	975.5
76.17	1047.0	975.6
76.18	1100.0	975.6
76.19	1150.0	975.7
76.2	1140.0	975.7
76.21	1122.0	975.8
76.22	1115.0	975.8
76.23	1129.0	975.8
76.24	1111.0	975.9
76.25	1089.0	975.9
76.26	1104.0	976.0
76.27	1125.0	976.0
76.28	1120.0	976.1
76.29	1088.0	976.1
76.3	1091.0	976.2
76.31	1131.0	976.2
76.32	1112.0	976.2
76.33	1071.0	976.3
76.34	1094.0	976.3
76.35	1101.0	976.4
76.36	1076.0	976.4
76.37	1117.0	976.5
76.38	1129.0	976.5
76.39	1104.0	976.6
76.4	1100.0	976.6
76.41	1103.0	976.7
76.42	1127.0	976.7
76.43	1155.0	976.7
76.44	1122.0	976.8
76.45	1122.0	976.8
76.46	1148.0	976.9
76.47	1146.0	976.9
76.48	1165.0	977.0
76.49	1192.0	977.0
76.5	1157.0	977.1
76.51	1169.0	977.1
76.52	1204.0	977.1
76.53	1194.0	977.2
76.54	1236.0	977.2
76.55	1255.0	977.3
76.56	1219.0	977.3
76.57	1271.0	977.4
76.58	1297.0	977.4
76.59	1259.0	977.5
76.6	1283.0	977.5
76.61	1286.0	977.6
76.62	1251.0	977.6
76.63	1233.0	977.6
76.64	1269.0	977.7
76.65	1261.0	977.7
76.66	1240.0	977.8
76.67	1246.0	977.8
76.68	1210.0	977.9
76.69	1166.0	977.9
76.7	1202.0	978.0
76.71	1193.0	978.0
76.72	1197.0	978.0
76.73	1168.0	978.1
76.74	1172.0	978.1
76.75	1195.0	978.2
76.76	1188.0	978.2
76.77	1199.0	978.3
76.78	1217.0	978.3
76.79	1194.0	978.4
76.8	1170.0	978.4
76.81	1189.0	978.4
76.82	1201.0	978.5
76.83	1198.0	978.5
76.84	1168.0	978.6
76.85	1154.0	978.6
76.86	1140.0	978.7
76.87	1156.0	978.7
76.88	1151.0	978.7
76.89	1081.0	978.8
76.9	1149.0	978.8
76.91	1099.0	978.9
76.92	1077.0	978.9
76.93	1090.0	979.0
76.94	1103.0	979.0
76.95	1113.0	979.1
76.96	1107.0	979.1
76.97	1080.0	979.1
76.98	1049.0	979.2
76.99	1025.0	979.2
77.0	1026.0	979.3
77.01	1017.0	979.3
77.02	1027.0	979.4
77.03	1056.0	979.4
77.04	1031.0	979.4
77.05	1051.0	979.5
77.06	1054.0	979.5
77.07	1016.0	979.6
77.08	1032.0	979.6
77.09	1028.0	979.7
77.1	1060.0	979.7
77.11	1037.0	979.7
77.12	1037.0	979.8
77.13	1026.0	979.8
77.14	1015.0	979.9
77.15	1013.0	979.9
77.16	1030.0	979.9
77.17	1019.0	980.0
77.18	998.0	980.0
77.19	1024.0	980.1
77.2	1025.0	980.1
77.21	1013.0	980.2
77.22	1040.0	980.2
77.23	1031.0	980.2
77.24	1013.0	980.3
77.25	1007.0	980.3
77.26	1040.0	980.4
77.27	1025.0	980.4
77.28	1022.0	980.4
77.29	1023.0	980.5
77.3	1006.0	980.5
77.31	987.0	980.6
77.32	1011.0	980.6
77.33	1019.0	980.6
77.34	1005.0	980.7
77.35	1000.0	980.7
77.36	968.0	980.8
77.37	993.0	980.8
77.38	1027.0	980.8
77.39	998.0	980.9
77.4	1001.0	980.9
77.41	1035.0	981.0
77.42	990.0	981.0
77.43	984.0	981.0
77.44	990.0	981.1
77.45	993.0	981.1
77.46	994.0	981.2
77.47	1002.0	981.2
77.48	972.0	981.2
77.49	1000.0	981.3
77.5	984.0	981.3
77.51	1034.0	981.3
77.52	1010.0	981.4
77.53	976.0	981.4
77.54	993.0	981.5
77.55	1024.0	981.5
77.56	1019.0	981.5
77.57	986.0	981.6
77.58	1001.0	981.6
77.59	974.0	981.6
77.6	988.0	981.7
77.61	1019.0	981.7
77.62	1019.0	981.8
77.63	1005.0	981.8
77.64	1001.0	981.8
77.65	995.0	981.9
77.66	980.0	981.9
77.67	969.0	981.9
77.68	1008.0	982.0
77.69	991.0	982.0
77.7	995.0	982.0
77.71	971.0	982.1
77.72	997.0	982.1
77.73	1005.0	982.1
77.74	979.0	982.2
77.75	1018.0	982.2
77.76	1000.0	982.2
77.77	982.0	982.3
77.78	979.0	982.3
77.79	997.0	982.3
77.8	1000.0	982.4
77.81	1017.0	982.4
77.82	1036.0	982.4
77.83	1032.0	982.5
77.84	1020.0	982.5
77.85	1022.0	982.5
77.86	1011.0	982.6
77.87	972.0	982.6
77.88	1000.0	982.6
77.89	994.0	982.7
77.9	1008.0	982.7
77.91	1017.0	982.7
77.92	991.0	982.8
77.93	997.0	982.8
77.94	1006.0	982.8
77.95	1047.0	982.9
77.96	1051.0	982.9
77.97	1009.0	982.9
77.98	1019.0	983.0
77.99	1060.0	983.0
78.0	1041.0	983.0
78.01	1023.0	983.0
78.02	1043.0	983.1
78.03	1030.0	983.1
78.04	998.0	983.1
78.05	1031.0	983.2
78.06	1044.0	983.2
78.07	1038.0	983.2
78.08	1011.0	983.3
78.09	985.0	983.3
78.1	970.0	983.3
78.11	971.0	983.3
78.12	1023.0	983.4
78.13	1035.0	983.4
78.14	1025.0	983.4
78.15	993.0	983.4
78.16	1034.0	983.5
78.17	996.0	983.5
78.18	1000.0	983.5
78.19	1017.0	983.6
78.2	1003.0	983.6
78.21	965.0	983.6
78.22	966.0	983.6
78.23	1002.0	983.7
78.24	1033.0	983.7
78.25	1047.0	983.7
78.26	1012.0	983.7
78.27	1022.0	983.8
78.28	993.0	983.8
78.29	998.0	983.8
78.3	1006.0	983.8
78.31	1023.0	983.9
78.32	1030.0	983.9
78.33	1002.0	983.9
78.34	977.0	983.9
78.35	1017.0	983.9
78.36	976.0	984.0
78.37	1013.0	984.0
78.38	1054.0	984.0
78.39	1016.0	984.0
78.4	1013.0	984.1
78.41	1039.0	984.1
78.42	981.0	984.1
78.43	1010.0	984.1
78.44	1008.0	984.1
78.45	1002.0	984.2
78.46	1017.0	984.2
78.47	1044.0	984.2
78.48	1008.0	984.2
78.49	1016.0	984.2
78.5	1016.0	984.3
78.51	1015.0	984.3
78.52	1032.0	984.3
78.53	1028.0	984.3
78.54	1051.0	984.3
78.55	1006.0	984.3
78.56	1050.0	984.4
78.57	1049.0	984.4
78.58	1012.0	984.4
78.59	1056.0	984.4
78.6	1044.0	984.4
78.61	1047.0	984.4
78.62	1002.0	984.5
78.63	1045.0	984.5
78.64	1026.0	984.5
78.65	1000.0	984.5
78.66	1017.0	984.5
78.67	1023.0	984.5
78.68	997.0	984.6
78.69	1002.0	984.6
78.7	1018.0	984.6
78.71	1047.0	984.6
78.72	1005.0	984.6
78.73	930.0	984.6
78.74	979.0	984.6
78.75	1032.0	984.6
78.76	1042.0	984.7
78.77	989.0	984.7
78.78	997.0	984.7
78.79	1031.0	984.7
78.8	998.0	984.7
78.81	1041.0	984.7
78.82	1010.0	984.7
78.83	1018.0	984.7
78.84	1026.0	984.7
78.85	1040.0	984.8
78.86	1012.0	984.8
78.87	986.0	984.8
78.88	977.0	984.8
78.89	1000.0	984.8
78.9	1025.0	984.8
78.91	1038.0	984.8
78.92	1025.0	984.8
78.93	1019.0	984.8
78.94	1013.0	984.8
78.95	1020.0	984.8
78.96	956.0	984.8
78.97	986.0	984.8
78.98	980.0	984.9
78.99	975.0	984.9
79.0	977.0	984.9
79.01	1005.0	984.9
79.02	1010.0	984.9
79.03	977.0	984.9
79.04	978.0	984.9
79.05	972.0	984.9
79.06	1000.0	984.9
79.07	1000.0	984.9
79.08	1044.0	984.9
79.09	1036.0	984.9
79.1	987.0	984.9
79.11	978.0	984.9
79.12	957.0	984.9
79.13	994.0	984.9
79.14	1013.0	984.9
79.15	966.0	984.9
79.16	968.0	984.9
79.17	1002.0	984.9
79.18	996.0	984.9
79.19	990.0	984.9
79.2	1005.0	984.9
79.21	995.0	984.9
79.22	984.0	984.9
79.23	955.0	984.9
79.24	1000.0	984.9
79.25	997.0	984.9
79.26	982.0	984.9
79.27	956.0	984.9
79.28	970.0	984.9
79.29	1006.0	984.9
79.3	1034.0	984.9
79.31	1010.0	984.9
79.32	989.0	984.9
79.33	1010.0	984.9
79.34	1013.0	984.9
79.35	1002.0	984.9
79.36	1040.0	984.9
79.37	1022.0	984.9
79.38	994.0	984.9
79.39	996.0	984.9
79.4	988.0	984.9
79.41	994.0	984.9
79.42	1036.0	984.9
79.43	1012.0	984.9
79.44	1022.0	984.9
79.45	1043.0	984.8
79.46	945.0	984.8
79.47	962.0	984.8
79.48	1009.0	984.8
79.49	1022.0	984.8
79.5	1028.0	984.8
79.51	1035.0	984.8
79.52	1041.0	984.8
79.53	1027.0	984.8
79.54	1015.0	984.8
79.55	1014.0	984.8
79.56	1035.0	984.8
79.57	1021.0	984.8
79.58	999.0	984.7
79.59	980.0	984.7
79.6	1021.0	984.7
79.61	1023.0	984.7
79.62	1014.0	984.7
79.63	1036.0	984.7
79.64	1007.0	984.7
79.65	1011.0	984.7
79.66	1047.0	984.7
79.67	1027.0	984.7
79.68	1008.0	984.6
79.69	1041.0	984.6
79.7	1012.0	984.6
79.71	1051.0	984.6
79.72	1067.0	984.6
79.73	1041.0	984.6
79.74	1051.0	984.6
79.75	1057.0	984.6
79.76	1051.0	984.5
79.77	1048.0	984.5
79.78	1077.0	984.5
79.79	1047.0	984.5
79.8	1037.0	984.5
79.81	1055.0	984.5
79.82	1057.0	984.5
79.83	1085.0	984.5
79.84	1086.0	984.4
79.85	1109.0	984.4
79.86	1096.0	984.4
79.87	1040.0	984.4
79.88	1036.0	984.4
79.89	1048.0	984.4
79.9	1063.0	984.3
79.91	1089.0	984.3
79.92	1137.0	984.3
79.93	1101.0	984.3
79.94	1121.0	984.3
79.95	1136.0	984.3
79.96	1097.0	984.2
79.97	1105.0	984.2
79.98	1110.0	984.2
79.99	1078.0	984.2
80.0	1125.0	984.2
80.01	1125.0	984.1
80.02	1073.0	984.1
80.03	1119.0	984.1
80.04	1120.0	984.1
80.05	1101.0	984.1
80.06	1090.0	984.1
80.07	1164.0	984.0
80.08	1158.0	984.0
80.09	1147.0	984.0
80.1	1149.0	984.0
80.11	1176.0	983.9
80.12	1172.0	983.9
80.13	1185.0	983.9
80.14	1210.0	983.9
80.15	1232.0	983.9
80.16	1231.0	983.8
80.17	1212.0	983.8
80.18	1234.0	983.8
80.19	1203.0	983.8
80.2	1194.0	983.8
80.21	1251.0	983.7
80.22	1240.0	983.7
80.23	1208.0	983.7
80.24	1228.0	983.7
80.25	1275.0	983.6
80.26	1284.0	983.6
80.27	1295.0	983.6
80.28	1288.0	983.6
80.29	1277.0	983.5
80.3	1251.0	983.5
80.31	1238.0	983.5
80.32	1291.0	983.5
80.33	1323.0	983.4
80.34	1312.0	983.4
80.35	1277.0	983.4
80.36	1289.0	983.4
80.37	1287.0	983.3
80.38	1295.0	983.3
80.39	1294.0	983.3
80.4	1320.0	983.3
80.41	1291.0	983.2
80.42	1309.0	983.2
80.43	1290.0	983.2
80.44	1248.0	983.2
80.45	1242.0	983.1
80.46	1266.0	983.1
80.47	1248.0	983.1
80.48	1264.0	983.0
80.49	1293.0	983.0
80.5	1293.0	983.0
80.51	1284.0	983.0
80.52	1286.0	982.9
80.53	1265.0	982.9
80.54	1250.0	982.9
80.55	1297.0	982.8
80.56	1345.0	982.8
80.57	1359.0	982.8
80.58	1351.0	982.8
80.59	1366.0	982.7
80.6	1422.0	982.7
80.61	1451.0	982.7
80.62	1503.0	982.6
80.63	1526.0	982.6
80.64	1516.0	982.6
80.65	1502.0	982.5
80.66	1507.0	982.5
80.67	1491.0	982.5
80.68	1537.0	982.4
80.69	1529.0	982.4
80.7	1486.0	982.4
80.71	1469.0	982.3
80.72	1437.0	982.3
80.73	1374.0	982.3
80.74	1377.0	982.2
80.75	1350.0	982.2
80.76	1326.0	982.2
80.77	1319.0	982.1
80.78	1291.0	982.1
80.79	1278.0	982.1
80.8	1268.0	982.0
80.81	1229.0	982.0
80.82	1266.0	982.0
80.83	1281.0	981.9
80.84	1253.0	981.9
80.85	1256.0	981.9
80.86	1246.0	981.8
80.87	1283.0	981.8
80.88	1257.0	981.8
80.89	1251.0	981.7
80.9	1290.0	981.7
80.91	1331.0	981.7
80.92	1299.0	981.6
80.93	1256.0	981.6
80.94	1242.0	981.6
80.95	1262.0	981.5
80.96	1245.0	981.5
80.97	1245.0	981.4
80.98	1204.0	981.4
80.99	1152.0	981.4
81.0	1133.0	981.3
81.01	1166.0	981.3
81.02	1165.0	981.3
81.03	1133.0	981.2
81.04	1121.0	981.2
81.05	1132.0	981.1
81.06	1122.0	981.1
81.07	1080.0	981.1
81.08	1095.0	981.0
81.09	1064.0	981.0
81.1	1071.0	981.0
81.11	1109.0	980.9
81.12	1110.0	980.9
81.13	1084.0	980.8
81.14	1063.0	980.8
81.15	1061.0	980.8
81.16	1072.0	980.7
81.17	1038.0	980.7
81.18	1006.0	980.6
81.19	1066.0	980.6
81.2	1058.0	980.6
81.21	1035.0	980.5
81.22	1024.0	980.5
81.23	1031.0	980.4
81.24	1026.0	980.4
81.25	1020.0	980.4
81.26	1030.0	980.3
81.27	1019.0	980.3
81.28	997.0	980.2
81.29	1019.0	980.2
81.3	1050.0	980.2
81.31	1036.0	980.1
81.32	1024.0	980.1
81.33	1042.0	980.0
81.34	1024.0	980.0
81.35	1020.0	979.9
81.36	1030.0	979.9
81.37	1019.0	979.9
81.38	1022.0	979.8
81.39	1016.0	979.8
81.4	1001.0	979.7
81.41	1016.0	979.7
81.42	1041.0	979.6
81.43	1045.0	979.6
81.44	1053.0	979.6
81.45	1026.0	979.5
81.46	983.0	979.5
81.47	977.0	979.4
81.48	996.0	979.4
81.49	985.0	979.3
81.5	1002.0	979.3
81.51	1021.0	979.2
81.52	1022.0	979.2
81.53	995.0	979.2
81.54	1012.0	979.1
81.55	1000.0	979.1
81.56	990.0	979.0
81.57	971.0	979.0
81.58	1005.0	978.9
81.59	1019.0	978.9
81.6	1007.0	978.8
81.61	1024.0	978.8
81.62	1007.0	978.7
81.63	985.0	978.7
81.64	994.0	978.7
81.65	1003.0	978.6
81.66	1024.0	978.6
81.67	1022.0	978.5
81.68	1025.0	978.5
81.69	1014.0	978.4
81.7	1021.0	978.4
81.71	996.0	978.3
81.72	945.0	978.3
81.73	962.0	978.2
81.74	980.0	978.2
81.75	1014.0	978.1
81.76	999.0	978.1
81.77	954.0	978.0
81.78	959.0	978.0
81.79	986.0	977.9
81.8	986.0	977.9
81.81	1015.0	977.8
81.82	1004.0	977.8
81.83	968.0	977.8
81.84	984.0	977.7
81.85	993.0	977.7
81.86	1009.0	977.6
81.87	1009.0	977.6
81.88	976.0	977.5
81.89	963.0	977.5
81.9	1003.0	977.4
81.91	978.0	977.4
81.92	993.0	977.3
81.93	1000.0	977.3
81.94	997.0	977.2
81.95	958.0	977.2
81.96	986.0	977.1
81.97	1022.0	977.1
81.98	982.0	977.0
81.99	951.0	977.0
82.0	953.0	976.9
82.01	966.0	976.9
82.02	1003.0	976.8
82.03	1004.0	976.8
82.04	1019.0	976.7
82.05	984.0	976.7
82.06	963.0	976.6
82.07	950.0	976.6
82.08	955.0	976.5
82.09	963.0	976.4
82.1	989.0	976.4
82.11	945.0	976.3
82.12	952.0	976.3
82.13	963.0	976.2
82.14	978.0	976.2
82.15	999.0	976.1
82.16	996.0	976.1
82.17	985.0	976.0
82.18	1020.0	976.0
82.19	1017.0	975.9
82.2	995.0	975.9
82.21	984.0	975.8
82.22	993.0	975.8
82.23	993.0	975.7
82.24	983.0	975.7
82.25	967.0	975.6
82.26	956.0	975.6
82.27	958.0	975.5
82.28	966.0	975.5
82.29	997.0	975.4
82.3	1009.0	975.3
82.31	980.0	975.3
82.32	985.0	975.2
82.33	1007.0	975.2
82.34	974.0	975.1
82.35	992.0	975.1
82.36	992.0	975.0
82.37	1014.0	975.0
82.38	963.0	974.9
82.39	970.0	974.9
82.4	988.0	974.8
82.41	952.0	974.8
82.42	1005.0	974.7
82.43	998.0	974.6
82.44	967.0	974.6
82.45	966.0	974.5
82.46	964.0	974.5
82.47	1001.0	974.4
82.48	1027.0	974.4
82.49	1034.0	974.3
82.5	1023.0	974.3
82.51	1000.0	974.2
82.52	1010.0	974.1
82.53	1015.0	974.1
82.54	1005.0	974.0
82.55	994.0	974.0
82.56	969.0	973.9
82.57	999.0	973.9
82.58	983.0	973.8
82.59	1017.0	973.8
82.6	997.0	973.7
82.61	994.0	973.6
82.62	1010.0	973.6
82.63	996.0	973.5
82.64	1033.0	973.5
82.65	1015.0	973.4
82.66	1009.0	973.4
82.67	963.0	973.3
82.68	951.0	973.2
82.69	977.0	973.2
82.7	997.0	973.1
82.71	1011.0	973.1
82.72	1029.0	973.0
82.73	1012.0	973.0
82.74	1013.0	972.9
82.75	986.0	972.9
82.76	1005.0	972.8
82.77	1018.0	972.7
82.78	1009.0	972.7
82.79	1005.0	972.6
82.8	1027.0	972.6
82.81	1039.0	972.5
82.82	1062.0	972.5
82.83	1041.0	972.4
82.84	1004.0	972.3
82.85	1020.0	972.3
82.86	996.0	972.2
82.87	992.0	972.2
82.88	983.0	972.1
82.89	1013.0	972.0
82.9	1003.0	972.0
82.91	1036.0	971.9
82.92	1027.0	971.9
82.93	1009.0	971.8
82.94	989.0	971.8
82.95	983.0	971.7
82.96	999.0	971.6
82.97	1010.0	971.6
82.98	989.0	971.5
82.99	978.0	971.5
83.0	964.0	971.4
83.01	989.0	971.3
83.02	1045.0	971.3
83.03	1054.0	971.2
83.04	1018.0	971.2
83.05	996.0	971.1
83.06	1030.0	971.1
83.07	1039.0	971.0
83.08	1000.0	970.9
83.09	993.0	970.9
83.1	988.0	970.8
83.11	1014.0	970.8
83.12	1027.0	970.7
83.13	1000.0	970.6
83.14	1016.0	970.6
83.15	1008.0	970.5
83.16	994.0	970.5
83.17	995.0	970.4
83.18	1010.0	970.3
83.19	993.0	970.3
83.2	989.0	970.2
83.21	1008.0	970.2
83.22	1011.0	970.1
83.23	1042.0	970.0
83.24	1008.0	970.0
83.25	999.0	969.9
83.26	1002.0	969.9
83.27	976.0	969.8
83.28	1007.0	969.7
83.29	1018.0	969.7
83.3	1002.0	969.6
83.31	1019.0	969.6
83.32	1033.0	969.5
83.33	1015.0	969.4
83.34	1025.0	969.4
83.35	1057.0	969.3
83.36	1040.0	969.3
83.37	1040.0	969.2
83.38	1042.0	969.1
83.39	1051.0	969.1
83.4	1020.0	969.0
83.41	1056.0	969.0
83.42	1049.0	968.9
83.43	1048.0	968.8
83.44	1047.0	968.8
83.45	1062.0	968.7
83.46	1060.0	968.7
83.47	1089.0	968.6
83.48	1065.0	968.5
83.49	1060.0	968.5
83.5	1067.0	968.4
83.51	1067.0	968.4
83.52	1031.0	968.3
83.53	1032.0	968.2
83.54	1067.0	968.2
83.55	1090.0	968.1
83.56	1104.0	968.1
83.57	1136.0	968.0
83.58	1150.0	967.9
83.59	1141.0	967.9
83.6	1133.0	967.8
83.61	1155.0	967.7
83.62	1193.0	967.7
83.63	1206.0	967.6
83.64	1203.0	967.6
83.65	1199.0	967.5
83.66	1236.0	967.4
83.67	1259.0	967.4
83.68	1245.0	967.3
83.69	1251.0	967.3
83.7	1267.0	967.2
83.71	1239.0	967.1
83.72	1231.0	967.1
83.73	1252.0	967.0
83.74	1262.0	967.0
83.75	1265.0	966.9
83.76	1237.0	966.8
83.77	1251.0	966.8
83.78	1238.0	966.7
83.79	1222.0	966.6
83.8	1201.0	966.6
83.81	1182.0	966.5
83.82	1202.0	966.5
83.83	1174.0	966.4
83.84	1144.0	966.3
83.85	1204.0	966.3
83.86	1189.0	966.2
83.87	1165.0	966.2
83.88	1163.0	966.1
83.89	1145.0	966.0
83.9	1137.0	966.0
83.91	1180.0	965.9
83.92	1227.0	965.8
83.93	1168.0	965.8
83.94	1154.0	965.7
83.95	1206.0	965.7
83.96	1221.0	965.6
83.97	1199.0	965.5
83.98	1167.0	965.5
83.99	1163.0	965.4
84.0	1168.0	965.4
84.01	1170.0	965.3
84.02	1198.0	965.2
84.03	1208.0	965.2
84.04	1191.0	965.1
84.05	1145.0	965.1
84.06	1112.0	965.0
84.07	1106.0	964.9
84.08	1123.0	964.9
84.09	1120.0	964.8
84.1	1112.0	964.7
84.11	1100.0	964.7
84.12	1121.0	964.6
84.13	1124.0	964.6
84.14	1113.0	964.5
84.15	1121.0	964.4
84.16	1102.0	964.4
84.17	1086.0	964.3
84.18	1119.0	964.3
84.19	1138.0	964.2
84.2	1099.0	964.1
84.21	1073.0	964.1
84.22	1065.0	964.0
84.23	1037.0	963.9
84.24	1063.0	963.9
84.25	1084.0	963.8
84.26	1089.0	963.8
84.27	1111.0	963.7
84.28	1051.0	963.6
84.29	1047.0	963.6
84.3	1053.0	963.5
84.31	1075.0	963.5
84.32	1071.0	963.4
84.33	1030.0	963.3
84.34	1025.0	963.3
84.35	1038.0	963.2
84.36	1040.0	963.2
84.37	1016.0	963.1
84.38	1036.0	963.0
84.39	1066.0	963.0
84.4	1022.0	962.9
84.41	1002.0	962.8
84.42	973.0	962.8
84.43	970.0	962.7
84.44	1024.0	962.7
84.45	1063.0	962.6
84.46	1053.0	962.5
84.47	1016.0	962.5
84.48	1029.0	962.4
84.49	1047.0	962.4
84.5	1025.0	962.3
84.51	1026.0	962.2
84.52	1038.0	962.2
84.53	1017.0	962.1
84.54	1019.0	962.1
84.55	1025.0	962.0
84.56	1010.0	961.9
84.57	989.0	961.9
84.58	1024.0	961.8
84.59	1035.0	961.8
84.6	1012.0	961.7
84.61	1013.0	961.6
84.62	1007.0	961.6
84.63	1001.0	961.5
84.64	1002.0	961.4
84.65	996.0	961.4
84.66	993.0	961.3
84.67	1035.0	961.3
84.68	1047.0	961.2
84.69	995.0	961.1
84.7	962.0	961.1
84.71	984.0	961.0
84.72	1000.0	961.0
84.73	990.0	960.9
84.74	1020.0	960.8
84.75	1017.0	960.8
84.76	986.0	960.7
84.77	991.0	960.7
84.78	1019.0	960.6
84.79	1028.0	960.5
84.8	1014.0	960.5
84.81	992.0	960.4
84.82	984.0	960.4
84.83	987.0	960.3
84.84	978.0	960.2
84.85	1012.0	960.2
84.86	1023.0	960.1
84.87	971.0	960.1
84.88	984.0	960.0
84.89	989.0	959.9
84.9	1000.0	959.9
84.91	978.0	959.8
84.92	960.0	959.8
84.93	997.0	959.7
84.94	1003.0	959.7
84.95	997.0	959.6
84.96	995.0	959.5
84.97	995.0	959.5
84.98	1007.0	959.4
84.99	999.0	959.4
85.0	1013.0	959.3
85.01	969.0	959.2
85.02	948.0	959.2
85.03	947.0	959.1
85.04	962.0	959.1
85.05	959.0	959.0
85.06	986.0	958.9
85.07	1001.0	958.9
85.08	945.0	958.8
85.09	960.0	958.8
85.1	970.0	958.7
85.11	955.0	958.7
85.12	956.0	958.6
85.13	979.0	958.5
85.14	964.0	958.5
85.15	983.0	958.4
85.16	963.0	958.4
85.17	991.0	958.3
85.18	1007.0	958.2
85.19	995.0	958.2
85.2	968.0	958.1
85.21	948.0	958.1
85.22	952.0	958.0
85.23	968.0	958.0
85.24	986.0	957.9
85.25	988.0	957.8
85.26	992.0	957.8
85.27	994.0	957.7
85.28	988.0	957.7
85.29	1015.0	957.6
85.3	1037.0	957.6
85.31	1013.0	957.5
85.32	984.0	957.4
85.33	1008.0	957.4
85.34	1000.0	957.3
85.35	968.0	957.3
85.36	966.0	957.2
85.37	983.0	957.2
85.38	1012.0	957.1
85.39	981.0	957.0
85.4	947.0	957.0
85.41	935.0	956.9
85.42	981.0	956.9
85.43	1042.0	956.8
85.44	1022.0	956.8
85.45	980.0	956.7
85.46	991.0	956.6
85.47	1001.0	956.6
85.48	1001.0	956.5
85.49	991.0	956.5
85.5	981.0	956.4
85.51	992.0	956.4
85.52	979.0	956.3
85.53	975.0	956.3
85.54	969.0	956.2
85.55	984.0	956.1
85.56	974.0	956.1
85.57	1016.0	956.0
85.58	982.0	956.0
85.59	975.0	955.9
85.6	1006.0	955.9
85.61	1015.0	955.8
85.62	1034.0	955.8
85.63	1018.0	955.7
85.64	1005.0	955.7
85.65	1020.0	955.6
85.66	996.0	955.5
85.67	990.0	955.5
85.68	1000.0	955.4
85.69	1043.0	955.4
85.7	1047.0	955.3
85.71	1040.0	955.3
85.72	1027.0	955.2
85.73	1017.0	955.2
85.74	1002.0	955.1
85.75	982.0	955.1
85.76	983.0	955.0
85.77	972.0	954.9
85.78	963.0	954.9
85.79	984.0	954.8
85.8	1001.0	954.8
85.81	1023.0	954.7
85.82	1017.0	954.7
85.83	1003.0	954.6
85.84	1007.0	954.6
85.85	1016.0	954.5
85.86	1038.0	954.5
85.87	1007.0	954.4
85.88	1001.0	954.4
85.89	1021.0	954.3
85.9	1009.0	954.3
85.91	1001.0	954.2
85.92	1016.0	954.2
85.93	1023.0	954.1
85.94	998.0	954.0
85.95	990.0	954.0
85.96	986.0	953.9
85.97	1029.0	953.9
85.98	1036.0	953.8
85.99	1035.0	953.8
86.0	1009.0	953.7
86.01	1015.0	953.7
86.02	998.0	953.6
86.03	1046.0	953.6
86.04	1043.0	953.5
86.05	1053.0	953.5
86.06	1053.0	953.4
86.07	1026.0	953.4
86.08	1017.0	953.3
86.09	1040.0	953.3
86.1	1064.0	953.2
86.11	1051.0	953.2
86.12	1051.0	953.1
86.13	1067.0	953.1
86.14	1068.0	953.0
86.15	1048.0	953.0
86.16	1035.0	952.9
86.17	1031.0	952.9
86.18	1024.0	952.8
86.19	1051.0	952.8
86.2	1063.0	952.7
86.21	1088.0	952.7
86.22	1057.0	952.6
86.23	1077.0	952.6
86.24	1095.0	952.5
86.25	1075.0	952.5
86.26	1047.0	952.4
86.27	1040.0	952.4
86.28	1048.0	952.3
86.29	1023.0	952.3
86.3	1026.0	952.2
86.31	1043.0	952.2
86.32	1046.0	952.1
86.33	1032.0	952.1
86.34	1025.0	952.0
86.35	1029.0	952.0
86.36	1021.0	951.9
86.37	1048.0	951.9
86.38	1037.0	951.8
86.39	1034.0	951.8
86.4	1052.0	951.7
86.41	1051.0	951.7
86.42	1007.0	951.6
86.43	1001.0	951.6
86.44	1010.0	951.5
86.45	1053.0	951.5
86.46	1018.0	951.4
86.47	1014.0	951.4
86.48	1017.0	951.3
86.49	994.0	951.3
86.5	992.0	951.2
86.51	1023.0	951.2
86.52	1022.0	951.1
86.53	1006.0	951.1
86.54	1013.0	951.0
86.55	1016.0	951.0
86.56	1030.0	950.9
86.57	1026.0	950.9
86.58	997.0	950.8
86.59	1007.0	950.8
86.6	1022.0	950.7
86.61	997.0	950.7
86.62	1004.0	950.6
86.63	1017.0	950.6
86.64	997.0	950.5
86.65	989.0	950.5
86.66	992.0	950.4
86.67	1002.0	950.4
86.68	989.0	950.4
86.69	1025.0	950.3
86.7	1010.0	950.3
86.71	973.0	950.2
86.72	980.0	950.2
86.73	999.0	950.1
86.74	997.0	950.1
86.75	988.0	950.0
86.76	1006.0	950.0
86.77	1018.0	949.9
86.78	1044.0	949.9
86.79	1037.0	949.8
86.8	1019.0	949.8
86.81	1012.0	949.7
86.82	989.0	949.7
86.83	996.0	949.6
86.84	985.0	949.6
86.85	970.0	949.6
86.86	989.0	949.5
86.87	1013.0	949.5
86.88	1001.0	949.4
86.89	960.0	949.4
86.9	978.0	949.3
86.91	1004.0	949.3
86.92	1016.0	949.2
86.93	1025.0	949.2
86.94	1034.0	949.1
86.95	1003.0	949.1
86.96	1001.0	949.1
86.97	995.0	949.0
86.98	989.0	949.0
86.99	1006.0	948.9
87.0	979.0	948.9
87.01	983.0	948.8
87.02	998.0	948.8
87.03	958.0	948.7
87.04	955.0	948.7
87.05	962.0	948.6
87.06	984.0	948.6
87.07	1003.0	948.6
87.08	992.0	948.5
87.09	971.0	948.5
87.1	956.0	948.4
87.11	953.0	948.4
87.12	994.0	948.3
87.13	1025.0	948.3
87.14	1007.0	948.2
87.15	992.0	948.2
87.16	1019.0	948.2
87.17	1033.0	948.1
87.18	1033.0	948.1
87.19	1004.0	948.0
87.2	958.0	948.0
87.21	957.0	947.9
87.22	989.0	947.9
87.23	1006.0	947.9
87.24	1030.0	947.8
87.25	1035.0	947.8
87.26	1051.0	947.7
87.27	1045.0	947.7
87.28	1007.0	947.6
87.29	994.0	947.6
87.3	982.0	947.5
87.31	1000.0	947.5
87.32	1009.0	947.5
87.33	1009.0	947.4
87.34	1001.0	947.4
87.35	1012.0	947.3
87.36	1044.0	947.3
87.37	1033.0	947.3
87.38	1022.0	947.2
87.39	1037.0	947.2
87.4	1031.0	947.1
87.41	1039.0	947.1
87.42	1044.0	947.0
87.43	1044.0	947.0
87.44	1032.0	947.0
87.45	1055.0	946.9
87.46	1065.0	946.9
87.47	1066.0	946.8
87.48	1087.0	946.8
87.49	1060.0	946.7
87.5	1046.0	946.7
87.51	1052.0	946.7
87.52	1056.0	946.6
87.53	1052.0	946.6
87.54	1069.0	946.5
87.55	1072.0	946.5
87.56	1071.0	946.5
87.57	1052.0	946.4
87.58	1042.0	946.4
87.59	1057.0	946.3
87.6	1072.0	946.3
87.61	1052.0	946.2
87.62	1025.0	946.2
87.63	1037.0	946.2
87.64	1039.0	946.1
87.65	1040.0	946.1
87.66	1065.0	946.0
87.67	1065.0	946.0
87.68	1036.0	946.0
87.69	1038.0	945.9
87.7	1065.0	945.9
87.71	1066.0	945.8
87.72	1069.0	945.8
87.73	1053.0	945.8
87.74	1025.0	945.7
87.75	1027.0	945.7
87.76	1032.0	945.6
87.77	1024.0	945.6
87.78	1023.0	945.6
87.79	1010.0	945.5
87.8	1017.0	945.5
87.81	1035.0	945.4
87.82	1040.0	945.4
87.83	1056.0	945.4
87.84	1046.0	945.3
87.85	1045.0	945.3
87.86	1051.0	945.2
87.87	993.0	945.2
87.88	983.0	945.2
87.89	1009.0	945.1
87.9	1032.0	945.1
87.91	1046.0	945.0
87.92	1031.0	945.0
87.93	1026.0	945.0
87.94	1001.0	944.9
87.95	1015.0	944.9
87.96	1013.0	944.9
87.97	994.0	944.8
87.98	990.0	944.8
87.99	1009.0	944.7
88.0	1022.0	944.7
88.01	1007.0	944.7
88.02	1003.0	944.6
88.03	994.0	944.6
88.04	964.0	944.5
88.05	984.0	944.5
88.06	1012.0	944.5
88.07	993.0	944.4
88.08	993.0	944.4
88.09	1008.0	944.4
88.1	997.0	944.3
88.11	1008.0	944.3
88.12	985.0	944.2
88.13	1016.0	944.2
88.14	1023.0	944.2
88.15	1001.0	944.1
88.16	1020.0	944.1
88.17	1023.0	944.1
88.18	1020.0	944.0
88.19	1028.0	944.0
88.2	1003.0	943.9
88.21	1006.0	943.9
88.22	1017.0	943.9
88.23	1015.0	943.8
88.24	1017.0	943.8
88.25	1005.0	943.8
88.26	973.0	943.7
88.27	970.0	943.7
88.28	961.0	943.6
88.29	990.0	943.6
88.3	1007.0	943.6
88.31	1004.0	943.5
88.32	1009.0	943.5
88.33	986.0	943.5
88.34	998.0	943.4
88.35	967.0	943.4
88.36	985.0	943.4
88.37	985.0	943.3
88.38	976.0	943.3
88.39	981.0	943.2
88.4	971.0	943.2
88.41	948.0	943.2
88.42	952.0	943.1
88.43	979.0	943.1
88.44	979.0	943.1
88.45	966.0	943.0
88.46	972.0	943.0
88.47	968.0	943.0
88.48	997.0	942.9
88.49	1003.0	942.9
88.5	968.0	942.9
88.51	974.0	942.8
88.52	1002.0	942.8
88.53	1002.0	942.8
88.54	982.0	942.7
88.55	997.0	942.7
88.56	1017.0	942.6
88.57	991.0	942.6
88.58	993.0	942.6
88.59	1007.0	942.5
88.6	998.0	942.5
88.61	992.0	942.5
88.62	986.0	942.4
88.63	967.0	942.4
88.64	974.0	942.4
88.65	992.0	942.3
88.66	998.0	942.3
88.67	958.0	942.3
88.68	927.0	942.2
88.69	947.0	942.2
88.7	963.0	942.2
88.71	954.0	942.1
88.72	956.0	942.1
88.73	968.0	942.1
88.74	949.0	942.0
88.75	946.0	942.0
88.76	975.0	942.0
88.77	974.0	941.9
88.78	983.0	941.9
88.79	993.0	941.9
88.8	996.0	941.8
88.81	1015.0	941.8
88.82	996.0	941.8
88.83	964.0	941.7
88.84	949.0	941.7
88.85	964.0	941.7
88.86	969.0	941.6
88.87	977.0	941.6
88.88	980.0	941.6
88.89	984.0	941.5
88.9	959.0	941.5
88.91	950.0	941.5
88.92	972.0	941.4
88.93	952.0	941.4
88.94	942.0	941.4
88.95	957.0	941.3
88.96	967.0	941.3
88.97	968.0	941.3
88.98	957.0	941.2
88.99	949.0	941.2
89.0	958.0	941.2
89.01	954.0	941.1
89.02	946.0	941.1
89.03	964.0	941.1
89.04	983.0	941.1
89.05	983.0	941.0
89.06	991.0	941.0
89.07	1001.0	941.0
89.08	1007.0	940.9
89.09	998.0	940.9
89.1	969.0	940.9
89.11	946.0	940.8
89.12	980.0	940.8
89.13	1004.0	940.8
89.14	960.0	940.7
89.15	961.0	940.7
89.16	986.0	940.7
89.17	999.0	940.6
89.18	998.0	940.6
89.19	1011.0	940.6
89.2	1005.0	940.6
89.21	982.0	940.5
89.22	950.0	940.5
89.23	964.0	940.5
89.24	996.0	940.4
89.25	998.0	940.4
89.26	987.0	940.4
89.27	971.0	940.3
89.28	977.0	940.3
89.29	969.0	940.3
89.3	944.0	940.2
89.31	976.0	940.2
89.32	991.0	940.2
89.33	994.0	940.2
89.34	989.0	940.1
89.35	974.0	940.1
89.36	989.0	940.1
89.37	977.0	940.0
89.38	960.0	940.0
89.39	987.0	940.0
89.4	1003.0	939.9
89.41	994.0	939.9
89.42	982.0	939.9
89.43	983.0	939.9
89.44	980.0	939.8
89.45	983.0	939.8
89.46	969.0	939.8
89.47	967.0	939.7
89.48	973.0	939.7
89.49	975.0	939.7
89.5	969.0	939.7
89.51	965.0	939.6
89.52	945.0	939.6
89.53	936.0	939.6
89.54	955.0	939.5
89.55	977.0	939.5
89.56	996.0	939.5
89.57	1025.0	939.5
89.58	1030.0	939.4
89.59	1017.0	939.4
89.6	1012.0	939.4
89.61	1013.0	939.3
89.62	997.0	939.3
89.63	998.0	939.3
89.64	1012.0	939.3
89.65	1003.0	939.2
89.66	999.0	939.2
89.67	1013.0	939.2
89.68	1011.0	939.1
89.69	1002.0	939.1
89.7	1007.0	939.1
89.71	1022.0	939.1
89.72	1001.0	939.0
89.73	978.0	939.0
89.74	982.0	939.0
89.75	977.0	939.0
89.76	994.0	938.9
89.77	979.0	938.9
89.78	982.0	938.9
89.79	1006.0	938.8
89.8	1007.0	938.8
89.81	1005.0	938.8
89.82	1006.0	938.8
89.83	1014.0	938.7
89.84	1027.0	938.7
89.85	1033.0	938.7
89.86	1022.0	938.7
89.87	1009.0	938.6
89.88	1002.0	938.6
89.89	991.0	938.6
89.9	1007.0	938.5
89.91	1027.0	938.5
89.92	1043.0	938.5
89.93	1050.0	938.5
89.94	1060.0	938.4
89.95	1045.0	938.4
89.96	1017.0	938.4
89.97	995.0	938.4
89.98	992.0	938.3
89.99	1015.0	938.3
90.0	1019.0	938.3
90.01	1006.0	938.3
90.02	1004.0	938.2
90.03	1019.0	938.2
90.04	1011.0	938.2
90.05	1026.0	938.2
90.06	1044.0	938.1
90.07	1032.0	938.1
90.08	1007.0	938.1
90.09	997.0	938.1
90.1	1007.0	938.0
90.11	1001.0	938.0
90.12	999.0	938.0
90.13	1013.0	938.0
90.14	1014.0	937.9
90.15	1017.0	937.9
90.16	1009.0	937.9
90.17	1020.0	937.9
90.18	1005.0	937.8
90.19	983.0	937.8
90.2	1009.0	937.8
90.21	1022.0	937.8
90.22	1009.0	937.7
90.23	992.0	937.7
90.24	1015.0	937.7
90.25	1015.0	937.7
90.26	1001.0	937.6
90.27	1003.0	937.6
90.28	1009.0	937.6
90.29	1020.0	937.6
90.3	996.0	937.5
90.31	977.0	937.5
90.32	996.0	937.5
90.33	1027.0	937.5
90.34	1030.0	937.4
90.35	1012.0	937.4
90.36	998.0	937.4
90.37	976.0	937.4
90.38	959.0	937.3
90.39	993.0	937.3
90.4	1011.0	937.3
90.41	1013.0	937.3
90.42	1004.0	937.3
90.43	987.0	937.2
90.44	966.0	937.2
90.45	945.0	937.2
90.46	975.0	937.2
90.47	1005.0	937.1
90.48	1012.0	937.1
90.49	1012.0	937.1
90.5	986.0	937.1
90.51	978.0	937.0
90.52	990.0	937.0
90.53	975.0	937.0
90.54	968.0	937.0
90.55	982.0	937.0
90.56	987.0	936.9
90.57	974.0	936.9
90.58	990.0	936.9
90.59	1003.0	936.9
90.6	990.0	936.8
90.61	997.0	936.8
90.62	1006.0	936.8
90.63	1020.0	936.8
90.64	1037.0	936.7
90.65	1029.0	936.7
90.66	978.0	936.7
90.67	979.0	936.7
90.68	1005.0	936.7
90.69	999.0	936.6
90.7	1002.0	936.6
90.71	1001.0	936.6
90.72	991.0	936.6
90.73	1003.0	936.6
90.74	1011.0	936.5
90.75	982.0	936.5
90.76	960.0	936.5
90.77	973.0	936.5
90.78	988.0	936.4
90.79	980.0	936.4
90.8	974.0	936.4
90.81	993.0	936.4
90.82	1001.0	936.4
90.83	1002.0	936.3
90.84	1009.0	936.3
90.85	1001.0	936.3
90.86	999.0	936.3
90.87	1015.0	936.3
90.88	1034.0	936.2
90.89	1010.0	936.2
90.9	1001.0	936.2
90.91	1012.0	936.2
90.92	998.0	936.2
90.93	986.0	936.1
90.94	981.0	936.1
90.95	979.0	936.1
90.96	987.0	936.1
90.97	1016.0	936.1
90.98	1033.0	936.0
90.99	1010.0	936.0
91.0	990.0	936.0
91.01	1000.0	936.0
91.02	1028.0	935.9
91.03	1060.0	935.9
91.04	1048.0	935.9
91.05	1021.0	935.9
91.06	1028.0	935.9
91.07	1016.0	935.9
91.08	987.0	935.8
91.09	991.0	935.8
91.1	1039.0	935.8
91.11	1046.0	935.8
91.12	1028.0	935.8
91.13	1046.0	935.7
91.14	1071.0	935.7
91.15	1060.0	935.7
91.16	1047.0	935.7
91.17	1067.0	935.7
91.18	1051.0	935.6
91.19	1038.0	935.6
91.2	1053.0	935.6
91.21	1056.0	935.6
91.22	1049.0	935.6
91.23	1047.0	935.5
91.24	1041.0	935.5
91.25	1016.0	935.5
91.26	997.0	935.5
91.27	1018.0	935.5
91.28	1038.0	935.4
91.29	1034.0	935.4
91.3	1032.0	935.4
91.31	1018.0	935.4
91.32	1025.0	935.4
91.33	1034.0	935.4
91.34	1031.0	935.3
91.35	1040.0	935.3
91.36	1035.0	935.3
91.37	1028.0	935.3
91.38	1040.0	935.3
91.39	1063.0	935.2
91.4	1060.0	935.2
91.41	1047.0	935.2
91.42	1066.0	935.2
91.43	1066.0	935.2
91.44	1035.0	935.2
91.45	1061.0	935.1
91.46	1088.0	935.1
91.47	1076.0	935.1
91.48	1040.0	935.1
91.49	1030.0	935.1
91.5	1064.0	935.1
91.51	1068.0	935.0
91.52	1063.0	935.0
91.53	1051.0	935.0
91.54	1049.0	935.0
91.55	1074.0	935.0
91.56	1092.0	935.0
91.57	1063.0	934.9
91.58	1061.0	934.9
91.59	1116.0	934.9
91.6	1154.0	934.9
91.61	1172.0	934.9
91.62	1180.0	934.9
91.63	1186.0	934.8
91.64	1188.0	934.8
91.65	1185.0	934.8
91.66	1174.0	934.8
91.67	1182.0	934.8
91.68	1215.0	934.8
91.69	1239.0	934.7
91.7	1234.0	934.7
91.71	1213.0	934.7
91.72	1251.0	934.7
91.73	1303.0	934.7
91.74	1295.0	934.7
91.75	1258.0	934.6
91.76	1216.0	934.6
91.77	1189.0	934.6
91.78	1170.0	934.6
91.79	1167.0	934.6
91.8	1179.0	934.6
91.81	1181.0	934.5
91.82	1169.0	934.5
91.83	1151.0	934.5
91.84	1158.0	934.5
91.85	1196.0	934.5
91.86	1203.0	934.5
91.87	1178.0	934.5
91.88	1152.0	934.4
91.89	1132.0	934.4
91.9	1110.0	934.4
91.91	1106.0	934.4
91.92	1158.0	934.4
91.93	1164.0	934.4
91.94	1128.0	934.3
91.95	1146.0	934.3
91.96	1139.0	934.3
91.97	1115.0	934.3
91.98	1149.0	934.3
91.99	1170.0	934.3
92.0	1124.0	934.3
92.01	1105.0	934.2
92.02	1136.0	934.2
92.03	1165.0	934.2
92.04	1190.0	934.2
92.05	1187.0	934.2
92.06	1158.0	934.2
92.07	1138.0	934.2
92.08	1127.0	934.1
92.09	1122.0	934.1
92.1	1102.0	934.1
92.11	1097.0	934.1
92.12	1106.0	934.1
92.13	1111.0	934.1
92.14	1115.0	934.1
92.15	1091.0	934.0
92.16	1057.0	934.0
92.17	1058.0	934.0
92.18	1087.0	934.0
92.19	1076.0	934.0
92.2	1049.0	934.0
92.21	1077.0	934.0
92.22	1083.0	934.0
92.23	1024.0	933.9
92.24	1010.0	933.9
92.25	1044.0	933.9
92.26	1042.0	933.9
92.27	1036.0	933.9
92.28	1029.0	933.9
92.29	994.0	933.9
92.3	993.0	933.8
92.31	1024.0	933.8
92.32	1055.0	933.8
92.33	1062.0	933.8
92.34	1051.0	933.8
92.35	1035.0	933.8
92.36	1004.0	933.8
92.37	985.0	933.8
92.38	977.0	933.7
92.39	973.0	933.7
92.4	1006.0	933.7
92.41	1019.0	933.7
92.42	1008.0	933.7
92.43	1014.0	933.7
92.44	1013.0	933.7
92.45	1016.0	933.7
92.46	993.0	933.6
92.47	952.0	933.6
92.48	978.0	933.6
92.49	1006.0	933.6
92.5	976.0	933.6
92.51	976.0	933.6
92.52	1020.0	933.6
92.53	1022.0	933.6
92.54	1015.0	933.6
92.55	1002.0	933.5
92.56	984.0	933.5
92.57	1000.0	933.5
92.58	994.0	933.5
92.59	977.0	933.5
92.6	964.0	933.5
92.61	970.0	933.5
92.62	967.0	933.5
92.63	972.0	933.4
92.64	990.0	933.4
92.65	979.0	933.4
92.66	954.0	933.4
92.67	951.0	933.4
92.68	973.0	933.4
92.69	991.0	933.4
92.7	970.0	933.4
92.71	959.0	933.4
92.72	973.0	933.3
92.73	988.0	933.3
92.74	977.0	933.3
92.75	973.0	933.3
92.76	989.0	933.3
92.77	1001.0	933.3
92.78	988.0	933.3
92.79	960.0	933.3
92.8	955.0	933.3
92.81	955.0	933.3
92.82	966.0	933.2
92.83	984.0	933.2
92.84	991.0	933.2
92.85	981.0	933.2
92.86	967.0	933.2
92.87	954.0	933.2
92.88	969.0	933.2
92.89	971.0	933.2
92.9	974.0	933.2
92.91	987.0	933.2
92.92	1004.0	933.1
92.93	1001.0	933.1
92.94	983.0	933.1
92.95	970.0	933.1
92.96	976.0	933.1
92.97	979.0	933.1
92.98	992.0	933.1
92.99	996.0	933.1
93.0	988.0	933.1
93.01	978.0	933.1
93.02	987.0	933.0
93.03	982.0	933.0
93.04	950.0	933.0
93.05	958.0	933.0
93.06	979.0	933.0
93.07	970.0	933.0
93.08	961.0	933.0
93.09	980.0	933.0
93.1	995.0	933.0
93.11	973.0	933.0
93.12	955.0	933.0
93.13	937.0	933.0
93.14	920.0	932.9
93.15	937.0	932.9
93.16	952.0	932.9
93.17	948.0	932.9
93.18	972.0	932.9
93.19	1017.0	932.9
93.2	1020.0	932.9
93.21	991.0	932.9
93.22	978.0	932.9
93.23	973.0	932.9
93.24	954.0	932.9
93.25	959.0	932.9
93.26	970.0	932.8
93.27	975.0	932.8
93.28	981.0	932.8
93.29	987.0	932.8
93.3	983.0	932.8
93.31	958.0	932.8
93.32	944.0	932.8
93.33	940.0	932.8
93.34	951.0	932.8
93.35	958.0	932.8
93.36	974.0	932.8
93.37	974.0	932.8
93.38	952.0	932.8
93.39	943.0	932.7
93.4	985.0	932.7
93.41	1031.0	932.7
93.42	1013.0	932.7
93.43	932.0	932.7
93.44	925.0	932.7
93.45	964.0	932.7
93.46	965.0	932.7
93.47	960.0	932.7
93.48	982.0	932.7
93.49	973.0	932.7
93.5	943.0	932.7
93.51	950.0	932.7
93.52	950.0	932.7
93.53	929.0	932.6
93.54	936.0	932.6
93.55	935.0	932.6
93.56	943.0	932.6
93.57	957.0	932.6
93.58	959.0	932.6
93.59	947.0	932.6
93.6	944.0	932.6
93.61	958.0	932.6
93.62	968.0	932.6
93.63	997.0	932.6
93.64	986.0	932.6
93.65	953.0	932.6
93.66	966.0	932.6
93.67	963.0	932.6
93.68	936.0	932.5
93.69	936.0	932.5
93.7	941.0	932.5
93.71	944.0	932.5
93.72	962.0	932.5
93.73	960.0	932.5
93.74	964.0	932.5
93.75	969.0	932.5
93.76	981.0	932.5
93.77	988.0	932.5
93.78	965.0	932.5
93.79	943.0	932.5
93.8	931.0	932.5
93.81	944.0	932.5
93.82	981.0	932.5
93.83	989.0	932.5
93.84	987.0	932.5
93.85	968.0	932.5
93.86	956.0	932.4
93.87	986.0	932.4
93.88	984.0	932.4
93.89	944.0	932.4
93.9	940.0	932.4
93.91	973.0	932.4
93.92	974.0	932.4
93.93	956.0	932.4
93.94	961.0	932.4
93.95	981.0	932.4
93.96	1000.0	932.4
93.97	986.0	932.4
93.98	956.0	932.4
93.99	970.0	932.4
94.0	982.0	932.4
94.01	987.0	932.4
94.02	1000.0	932.4
94.03	997.0	932.4
94.04	984.0	932.4
94.05	966.0	932.4
94.06	979.0	932.4
94.07	963.0	932.3
94.08	970.0	932.3
94.09	986.0	932.3
94.1	978.0	932.3
94.11	988.0	932.3
94.12	979.0	932.3
94.13	990.0	932.3
94.14	1004.0	932.3
94.15	967.0	932.3
94.16	967.0	932.3
94.17	979.0	932.3
94.18	972.0	932.3
94.19	985.0	932.3
94.2	1015.0	932.3
94.21	1005.0	932.3
94.22	1002.0	932.3
94.23	985.0	932.3
94.24	953.0	932.3
94.25	966.0	932.3
94.26	994.0	932.3
94.27	973.0	932.3
94.28	977.0	932.3
94.29	995.0	932.3
94.3	993.0	932.3
94.31	989.0	932.3
94.32	976.0	932.3
94.33	969.0	932.3
94.34	980.0	932.3
94.35	983.0	932.2
94.36	963.0	932.2
94.37	966.0	932.2
94.38	987.0	932.2
94.39	1005.0	932.2
94.4	996.0	932.2
94.41	968.0	932.2
94.42	941.0	932.2
94.43	936.0	932.2
94.44	951.0	932.2
94.45	958.0	932.2
94.46	993.0	932.2
94.47	998.0	932.2
94.48	995.0	932.2
94.49	995.0	932.2
94.5	972.0	932.2
94.51	966.0	932.2
94.52	978.0	932.2
94.53	986.0	932.2
94.54	998.0	932.2
94.55	1008.0	932.2
94.56	1023.0	932.2
94.57	1026.0	932.2
94.58	1003.0	932.2
94.59	993.0	932.2
94.6	1004.0	932.2
94.61	991.0	932.2
94.62	989.0	932.2
94.63	997.0	932.2
94.64	989.0	932.2
94.65	972.0	932.2
94.66	967.0	932.2
94.67	954.0	932.2
94.68	960.0	932.2
94.69	963.0	932.2
94.7	987.0	932.2
94.71	1036.0	932.2
94.72	1011.0	932.2
94.73	1003.0	932.2
94.74	1028.0	932.2
94.75	1029.0	932.2
94.76	983.0	932.2
94.77	980.0	932.2
94.78	953.0	932.2
94.79	960.0	932.2
94.8	967.0	932.2
94.81	974.0	932.1
94.82	976.0	932.1
94.83	954.0	932.1
94.84	954.0	932.1
94.85	975.0	932.1
94.86	1001.0	932.1
94.87	966.0	932.1
94.88	986.0	932.1
94.89	971.0	932.1
94.9	951.0	932.1
94.91	968.0	932.1
94.92	995.0	932.1
94.93	1025.0	932.1
94.94	975.0	932.1
94.95	954.0	932.1
94.96	944.0	932.1
94.97	966.0	932.1
94.98	988.0	932.1
94.99	1003.0	932.1
95.0	971.0	932.1
95.01	955.0	932.1
95.02	977.0	932.1
95.03	987.0	932.1
95.04	976.0	932.1
95.05	965.0	932.1
95.06	941.0	932.1
95.07	961.0	932.1
95.08	957.0	932.1
95.09	933.0	932.1
95.1	947.0	932.1
95.11	945.0	932.1
95.12	970.0	932.1
95.13	965.0	932.1
95.14	986.0	932.1
95.15	1013.0	932.1
95.16	997.0	932.1
95.17	993.0	932.1
95.18	996.0	932.1
95.19	972.0	932.1
95.2	974.0	932.1
95.21	984.0	932.1
95.22	988.0	932.1
95.23	993.0	932.1
95.24	999.0	932.1
95.25	1023.0	932.1
95.26	997.0	932.1
95.27	977.0	932.1
95.28	972.0	932.1
95.29	959.0	932.1
95.3	977.0	932.1
95.31	1007.0	932.1
95.32	1000.0	932.1
95.33	975.0	932.1
95.34	948.0	932.1
95.35	931.0	932.1
95.36	962.0	932.1
95.37	988.0	932.1
95.38	986.0	932.1
95.39	964.0	932.1
95.4	981.0	932.1
95.41	1007.0	932.1
95.42	1028.0	932.1
95.43	1017.0	932.1
95.44	990.0	932.1
95.45	983.0	932.1
95.46	1010.0	932.1
95.47	1015.0	932.1
95.48	1000.0	932.1
95.49	978.0	932.2
95.5	982.0	932.2
95.51	968.0	932.2
95.52	948.0	932.2
95.53	971.0	932.2
95.54	972.0	932.2
95.55	1003.0	932.2
95.56	1006.0	932.2
95.57	1007.0	932.2
95.58	978.0	932.2
95.59	1000.0	932.2
95.6	999.0	932.2
95.61	1002.0	932.2
95.62	985.0	932.2
95.63	946.0	932.2
95.64	987.0	932.2
95.65	995.0	932.2
95.66	982.0	932.2
95.67	976.0	932.2
95.68	983.0	932.2
95.69	993.0	932.2
95.7	997.0	932.2
95.71	977.0	932.2
95.72	961.0	932.2
95.73	983.0	932.2
95.74	998.0	932.2
95.75	985.0	932.2
95.76	1029.0	932.2
95.77	1012.0	932.2
95.78	1013.0	932.2
95.79	1058.0	932.2
95.8	1043.0	932.2
95.81	1017.0	932.2
95.82	1015.0	932.2
95.83	999.0	932.2
95.84	1029.0	932.2
95.85	1017.0	932.2
95.86	977.0	932.2
95.87	961.0	932.2
95.88	984.0	932.2
95.89	993.0	932.2
95.9	1016.0	932.2
95.91	1013.0	932.2
95.92	987.0	932.2
95.93	996.0	932.2
95.94	1015.0	932.2
95.95	1044.0	932.2
95.96	1021.0	932.2
95.97	1005.0	932.2
95.98	1003.0	932.2
95.99	1027.0	932.3
96.0	1043.0	932.3
96.01	1022.0	932.3
96.02	1028.0	932.3
96.03	1027.0	932.3
96.04	1016.0	932.3
96.05	991.0	932.3
96.06	1018.0	932.3
96.07	1034.0	932.3
96.08	1006.0	932.3
96.09	1035.0	932.3
96.1	1051.0	932.3
96.11	1038.0	932.3
96.12	1023.0	932.3
96.13	1017.0	932.3
96.14	1011.0	932.3
96.15	988.0	932.3
96.16	1011.0	932.3
96.17	1004.0	932.3
96.18	1028.0	932.3
96.19	1030.0	932.3
96.2	1042.0	932.3
96.21	1025.0	932.3
96.22	1003.0	932.3
96.23	1027.0	932.3
96.24	1009.0	932.3
96.25	1010.0	932.3
96.26	1016.0	932.3
96.27	1024.0	932.3
96.28	1000.0	932.3
96.29	1019.0	932.3
96.3	1024.0	932.4
96.31	1051.0	932.4
96.32	1051.0	932.4
96.33	1038.0	932.4
96.34	1022.0	932.4
96.35	1059.0	932.4
96.36	1058.0	932.4
96.37	1027.0	932.4
96.38	1022.0	932.4
96.39	1040.0	932.4
96.4	1040.0	932.4
96.41	1033.0	932.4
96.42	1047.0	932.4
96.43	1084.0	932.4
96.44	1077.0	932.4
96.45	1018.0	932.4
96.46	1005.0	932.4
96.47	1020.0	932.4
96.48	1041.0	932.4
96.49	1050.0	932.4
96.5	1049.0	932.4
96.51	1050.0	932.4
96.52	1035.0	932.4
96.53	1038.0	932.4
96.54	1056.0	932.4
96.55	1060.0	932.5
96.56	1038.0	932.5
96.57	1021.0	932.5
96.58	1045.0	932.5
96.59	1082.0	932.5
96.6	1056.0	932.5
96.61	1013.0	932.5
96.62	1045.0	932.5
96.63	1066.0	932.5
96.64	1069.0	932.5
96.65	1059.0	932.5
96.66	1048.0	932.5
96.67	1056.0	932.5
96.68	1065.0	932.5
96.69	1107.0	932.5
96.7	1106.0	932.5
96.71	1083.0	932.5
96.72	1069.0	932.5
96.73	1075.0	932.5
96.74	1119.0	932.5
96.75	1097.0	932.5
96.76	1085.0	932.5
96.77	1109.0	932.6
96.78	1107.0	932.6
96.79	1052.0	932.6
96.8	1040.0	932.6
96.81	1048.0	932.6
96.82	1060.0	932.6
96.83	1050.0	932.6
96.84	1083.0	932.6
96.85	1078.0	932.6
96.86	1104.0	932.6
96.87	1082.0	932.6
96.88	1065.0	932.6
96.89	1069.0	932.6
96.9	1076.0	932.6
96.91	1073.0	932.6
96.92	1059.0	932.6
96.93	1059.0	932.6
96.94	1061.0	932.6
96.95	1046.0	932.6
96.96	1004.0	932.6
96.97	1028.0	932.7
96.98	1063.0	932.7
96.99	1042.0	932.7
97.0	1053.0	932.7
97.01	1051.0	932.7
97.02	1087.0	932.7
97.03	1095.0	932.7
97.04	1085.0	932.7
97.05	1039.0	932.7
97.06	1077.0	932.7
97.07	1057.0	932.7
97.08	1067.0	932.7
97.09	1053.0	932.7
97.1	1052.0	932.7
97.11	1060.0	932.7
97.12	1049.0	932.7
97.13	1061.0	932.7
97.14	1069.0	932.7
97.15	1037.0	932.8
97.16	999.0	932.8
97.17	1011.0	932.8
97.18	1022.0	932.8
97.19	1027.0	932.8
97.2	1023.0	932.8
97.21	1000.0	932.8
97.22	1014.0	932.8
97.23	1016.0	932.8
97.24	1010.0	932.8
97.25	978.0	932.8
97.26	982.0	932.8
97.27	1034.0	932.8
97.28	965.0	932.8
97.29	980.0	932.8
97.3	1001.0	932.8
97.31	1029.0	932.8
97.32	1032.0	932.9
97.33	985.0	932.9
97.34	1002.0	932.9
97.35	977.0	932.9
97.36	936.0	932.9
97.37	1006.0	932.9
97.38	1029.0	932.9
97.39	1010.0	932.9
97.4	1005.0	932.9
97.41	958.0	932.9
97.42	979.0	932.9
97.43	962.0	932.9
97.44	987.0	932.9
97.45	999.0	932.9
97.46	931.0	932.9
97.47	940.0	932.9
97.48	981.0	933.0
97.49	989.0	933.0
97.5	988.0	933.0
97.51	984.0	933.0
97.52	970.0	933.0
97.53	1001.0	933.0
97.54	981.0	933.0
97.55	976.0	933.0
97.56	1000.0	933.0
97.57	976.0	933.0
97.58	948.0	933.0
97.59	978.0	933.0
97.6	960.0	933.0
97.61	978.0	933.0
97.62	969.0	933.0
97.63	978.0	933.0
97.64	1007.0	933.1
97.65	1009.0	933.1
97.66	982.0	933.1
97.67	980.0	933.1
97.68	1026.0	933.1
97.69	1001.0	933.1
97.7	952.0	933.1
97.71	967.0	933.1
97.72	997.0	933.1
97.73	982.0	933.1
97.74	968.0	933.1
97.75	987.0	933.1
97.76	1021.0	933.1
97.77	1033.0	933.1
97.78	984.0	933.1
97.79	975.0	933.2
97.8	974.0	933.2
97.81	987.0	933.2
97.82	988.0	933.2
97.83	1003.0	933.2
97.84	968.0	933.2
97.85	968.0	933.2
97.86	972.0	933.2
97.87	957.0	933.2
97.88	979.0	933.2
97.89	992.0	933.2
97.9	969.0	933.2
97.91	985.0	933.2
97.92	971.0	933.2
97.93	976.0	933.3
97.94	955.0	933.3
97.95	977.0	933.3
97.96	969.0	933.3
97.97	956.0	933.3
97.98	985.0	933.3
97.99	957.0	933.3
98.0	917.0	933.3
98.01	932.0	933.3
98.02	952.0	933.3
98.03	977.0	933.3
98.04	975.0	933.3
98.05	955.0	933.3
98.06	943.0	933.3
98.07	957.0	933.4
98.08	948.0	933.4
98.09	970.0	933.4
98.1	974.0	933.4
98.11	923.0	933.4
98.12	953.0	933.4
98.13	977.0	933.4
98.14	1010.0	933.4
98.15	988.0	933.4
98.16	1004.0	933.4
98.17	969.0	933.4
98.18	957.0	933.4
98.19	955.0	933.4
98.2	971.0	933.5
98.21	994.0	933.5
98.22	984.0	933.5
98.23	989.0	933.5
98.24	969.0	933.5
98.25	969.0	933.5
98.26	975.0	933.5
98.27	961.0	933.5
98.28	961.0	933.5
98.29	1000.0	933.5
98.3	1032.0	933.5
98.31	1038.0	933.5
98.32	1001.0	933.5
98.33	994.0	933.5
98.34	950.0	933.6
98.35	1000.0	933.6
98.36	998.0	933.6
98.37	955.0	933.6
98.38	977.0	933.6
98.39	977.0	933.6
98.4	964.0	933.6
98.41	951.0	933.6
98.42	945.0	933.6
98.43	960.0	933.6
98.44	947.0	933.6
98.45	940.0	933.6
98.46	940.0	933.7
98.47	946.0	933.7
98.48	950.0	933.7
98.49	956.0	933.7
98.5	964.0	933.7
98.51	909.0	933.7
98.52	944.0	933.7
98.53	938.0	933.7
98.54	963.0	933.7
98.55	944.0	933.7
98.56	920.0	933.7
98.57	948.0	933.7
98.58	963.0	933.7
98.59	944.0	933.8
98.6	960.0	933.8
98.61	957.0	933.8
98.62	943.0	933.8
98.63	943.0	933.8
98.64	962.0	933.8
98.65	938.0	933.8
98.66	964.0	933.8
98.67	961.0	933.8
98.68	975.0	933.8
98.69	993.0	933.8
98.7	998.0	933.8
98.71	995.0	933.8
98.72	974.0	933.9
98.73	979.0	933.9
98.74	966.0	933.9
98.75	1005.0	933.9
98.76	980.0	933.9
98.77	993.0	933.9
98.78	953.0	933.9
98.79	940.0	933.9
98.8	955.0	933.9
98.81	987.0	933.9
98.82	1008.0	933.9
98.83	1001.0	933.9
98.84	989.0	934.0
98.85	976.0	934.0
98.86	953.0	934.0
98.87	954.0	934.0
98.88	970.0	934.0
98.89	984.0	934.0
98.9	984.0	934.0
98.91	976.0	934.0
98.92	965.0	934.0
98.93	950.0	934.0
98.94	933.0	934.0
98.95	947.0	934.0
98.96	996.0	934.1
98.97	995.0	934.1
98.98	976.0	934.1
98.99	952.0	934.1
99.0	985.0	934.1
99.01	996.0	934.1
99.02	971.0	934.1
99.03	997.0	934.1
99.04	996.0	934.1
99.05	996.0	934.1
99.06	992.0	934.1
99.07	965.0	934.1
99.08	944.0	934.2
99.09	962.0	934.2
99.1	981.0	934.2
99.11	974.0	934.2
99.12	992.0	934.2
99.13	952.0	934.2
99.14	960.0	934.2
99.15	970.0	934.2
99.16	988.0	934.2
99.17	994.0	934.2
99.18	958.0	934.2
99.19	950.0	934.2
99.2	943.0	934.3
99.21	956.0	934.3
99.22	948.0	934.3
99.23	930.0	934.3
99.24	937.0	934.3
99.25	934.0	934.3
99.26	989.0	934.3
99.27	1005.0	934.3
99.28	994.0	934.3
99.29	977.0	934.3
99.3	981.0	934.3
99.31	1019.0	934.3
99.32	981.0	934.4
99.33	964.0	934.4
99.34	1046.0	934.4
99.35	1014.0	934.4
99.36	996.0	934.4
99.37	986.0	934.4
99.38	984.0	934.4
99.39	967.0	934.4
99.4	966.0	934.4
99.41	954.0	934.4
99.42	995.0	934.4
99.43	994.0	934.5
99.44	995.0	934.5
99.45	966.0	934.5
99.46	942.0	934.5
99.47	966.0	934.5
99.48	983.0	934.5
99.49	1002.0	934.5
99.5	1017.0	934.5
99.51	1003.0	934.5
99.52	950.0	934.5
99.53	945.0	934.5
99.54	992.0	934.5
99.55	964.0	934.6
99.56	1007.0	934.6
99.57	1016.0	934.6
99.58	997.0	934.6
99.59	953.0	934.6
99.6	982.0	934.6
99.61	992.0	934.6
99.62	1015.0	934.6
99.63	981.0	934.6
99.64	960.0	934.6
99.65	954.0	934.6
99.66	947.0	934.6
99.67	1005.0	934.7
99.68	1034.0	934.7
99.69	1016.0	934.7
99.7	962.0	934.7
99.71	969.0	934.7
99.72	970.0	934.7
99.73	1005.0	934.7
99.74	1004.0	934.7
99.75	1019.0	934.7
99.76	1007.0	934.7
99.77	979.0	934.7
99.78	997.0	934.8
99.79	976.0	934.8
99.8	938.0	934.8
99.81	1004.0	934.8
99.82	981.0	934.8
99.83	979.0	934.8
99.84	995.0	934.8
99.85	976.0	934.8
99.86	965.0	934.8
99.87	989.0	934.8
99.88	987.0	934.8
99.89	964.0	934.8
99.9	995.0	934.9
99.91	994.0	934.9
99.92	946.0	934.9
99.93	953.0	934.9
99.94	967.0	934.9
99.95	954.0	934.9
99.96	980.0	934.9
99.97	1011.0	934.9
99.98	1022.0	934.9
99.99	1000.0	934.9
100.0	995.0	934.9
