Multi_33%Mn2O3_33%Ti
Wavelength = 1.54059 Ã… (Cu)
Angle	I(o)	I(b)
10.0	1869.0	1834.7
10.01	1849.0	1835.3
10.02	1863.0	1835.9
10.03	1803.0	1836.5
10.04	1825.0	1837.2
10.05	1833.0	1837.8
10.06	1785.0	1838.4
10.07	1798.0	1839.0
10.08	1820.0	1839.7
10.09	1824.0	1840.3
10.1	1791.0	1840.9
10.11	1799.0	1841.6
10.12	1799.0	1842.2
10.13	1847.0	1842.8
10.14	1809.0	1843.4
10.15	1874.0	1844.1
10.16	1847.0	1844.7
10.17	1843.0	1845.3
10.18	1765.0	1846.0
10.19	1777.0	1846.6
10.2	1818.0	1847.2
10.21	1845.0	1847.9
10.22	1820.0	1848.5
10.23	1814.0	1849.1
10.24	1887.0	1849.7
10.25	1897.0	1850.4
10.26	1797.0	1851.0
10.27	1795.0	1851.6
10.28	1818.0	1852.3
10.29	1867.0	1852.9
10.3	1860.0	1853.6
10.31	1865.0	1854.2
10.32	1848.0	1854.8
10.33	1854.0	1855.5
10.34	1853.0	1856.1
10.35	1811.0	1856.7
10.36	1768.0	1857.4
10.37	1796.0	1858.0
10.38	1818.0	1858.7
10.39	1835.0	1859.3
10.4	1852.0	1859.9
10.41	1861.0	1860.6
10.42	1870.0	1861.2
10.43	1884.0	1861.9
10.44	1833.0	1862.5
10.45	1828.0	1863.2
10.46	1816.0	1863.8
10.47	1855.0	1864.4
10.48	1896.0	1865.1
10.49	1903.0	1865.7
10.5	1842.0	1866.4
10.51	1886.0	1867.0
10.52	1859.0	1867.7
10.53	1848.0	1868.4
10.54	1924.0	1869.0
10.55	1889.0	1869.7
10.56	1943.0	1870.3
10.57	1923.0	1871.0
10.58	1872.0	1871.6
10.59	1892.0	1872.3
10.6	1903.0	1872.9
10.61	1850.0	1873.6
10.62	1862.0	1874.3
10.63	1825.0	1874.9
10.64	1817.0	1875.6
10.65	1837.0	1876.3
10.66	1814.0	1876.9
10.67	1842.0	1877.6
10.68	1900.0	1878.3
10.69	1893.0	1878.9
10.7	1884.0	1879.6
10.71	1889.0	1880.3
10.72	1839.0	1881.0
10.73	1874.0	1881.6
10.74	1935.0	1882.3
10.75	1893.0	1883.0
10.76	1849.0	1883.7
10.77	1866.0	1884.4
10.78	1897.0	1885.0
10.79	1930.0	1885.7
10.8	1903.0	1886.4
10.81	1887.0	1887.1
10.82	1827.0	1887.8
10.83	1839.0	1888.5
10.84	1933.0	1889.2
10.85	1921.0	1889.9
10.86	1890.0	1890.6
10.87	1894.0	1891.2
10.88	1871.0	1891.9
10.89	1878.0	1892.6
10.9	1885.0	1893.3
10.91	1902.0	1894.1
10.92	1920.0	1894.8
10.93	1884.0	1895.5
10.94	1911.0	1896.2
10.95	1882.0	1896.9
10.96	1891.0	1897.6
10.97	1953.0	1898.3
10.98	1890.0	1899.0
10.99	1859.0	1899.7
11.0	1943.0	1900.5
11.01	1935.0	1901.2
11.02	1943.0	1901.9
11.03	1959.0	1902.6
11.04	1957.0	1903.4
11.05	1954.0	1904.1
11.06	1965.0	1904.8
11.07	1907.0	1905.5
11.08	1909.0	1906.3
11.09	1935.0	1907.0
11.1	1930.0	1907.8
11.11	1931.0	1908.5
11.12	1888.0	1909.2
11.13	1928.0	1910.0
11.14	1999.0	1910.7
11.15	1913.0	1911.5
11.16	1919.0	1912.2
11.17	1954.0	1913.0
11.18	1919.0	1913.7
11.19	1895.0	1914.5
11.2	1882.0	1915.3
11.21	1949.0	1916.0
11.22	1967.0	1916.8
11.23	1977.0	1917.6
11.24	1951.0	1918.3
11.25	1922.0	1919.1
11.26	1921.0	1919.9
11.27	1949.0	1920.6
11.28	1967.0	1921.4
11.29	1971.0	1922.2
11.3	1960.0	1923.0
11.31	1926.0	1923.8
11.32	1951.0	1924.5
11.33	1950.0	1925.3
11.34	1934.0	1926.1
11.35	1929.0	1926.9
11.36	1986.0	1927.7
11.37	1985.0	1928.5
11.38	1988.0	1929.3
11.39	1957.0	1930.1
11.4	1959.0	1930.9
11.41	1947.0	1931.7
11.42	1950.0	1932.5
11.43	1908.0	1933.3
11.44	1933.0	1934.1
11.45	1935.0	1934.9
11.46	1977.0	1935.7
11.47	1971.0	1936.5
11.48	2031.0	1937.3
11.49	2030.0	1938.1
11.5	1950.0	1939.0
11.51	1898.0	1939.8
11.52	1919.0	1940.6
11.53	1916.0	1941.4
11.54	1944.0	1942.2
11.55	1955.0	1943.1
11.56	1910.0	1943.9
11.57	1901.0	1944.7
11.58	1988.0	1945.5
11.59	1993.0	1946.3
11.6	1982.0	1947.2
11.61	1962.0	1948.0
11.62	1960.0	1948.8
11.63	1938.0	1949.7
11.64	1969.0	1950.5
11.65	1940.0	1951.3
11.66	1951.0	1952.2
11.67	1981.0	1953.0
11.68	1969.0	1953.8
11.69	1947.0	1954.7
11.7	1971.0	1955.5
11.71	2029.0	1956.3
11.72	2037.0	1957.2
11.73	1934.0	1958.0
11.74	1921.0	1958.8
11.75	1924.0	1959.7
11.76	1955.0	1960.5
11.77	2012.0	1961.4
11.78	2002.0	1962.2
11.79	1955.0	1963.0
11.8	2025.0	1963.9
11.81	2056.0	1964.7
11.82	2017.0	1965.6
11.83	2025.0	1966.4
11.84	1998.0	1967.3
11.85	1942.0	1968.1
11.86	1989.0	1968.9
11.87	2007.0	1969.8
11.88	2016.0	1970.6
11.89	2005.0	1971.5
11.9	1990.0	1972.3
11.91	1989.0	1973.2
11.92	1973.0	1974.0
11.93	1963.0	1974.9
11.94	1953.0	1975.7
11.95	1971.0	1976.6
11.96	1971.0	1977.4
11.97	2005.0	1978.3
11.98	1986.0	1979.1
11.99	1992.0	1979.9
12.0	2016.0	1980.8
12.01	2014.0	1981.6
12.02	2017.0	1982.5
12.03	2008.0	1983.3
12.04	2000.0	1984.2
12.05	2017.0	1985.0
12.06	2070.0	1985.9
12.07	2027.0	1986.7
12.08	2057.0	1987.6
12.09	2080.0	1988.4
12.1	2024.0	1989.2
12.11	2022.0	1990.1
12.12	2013.0	1990.9
12.13	2040.0	1991.8
12.14	1992.0	1992.6
12.15	2020.0	1993.5
12.16	2049.0	1994.3
12.17	2005.0	1995.1
12.18	1990.0	1996.0
12.19	1929.0	1996.8
12.2	1961.0	1997.7
12.21	2031.0	1998.5
12.22	1997.0	1999.3
12.23	2014.0	2000.2
12.24	1997.0	2001.0
12.25	2026.0	2001.8
12.26	2052.0	2002.7
12.27	2056.0	2003.5
12.28	1992.0	2004.3
12.29	2025.0	2005.2
12.3	2128.0	2006.0
12.31	2097.0	2006.8
12.32	2046.0	2007.7
12.33	2040.0	2008.5
12.34	2091.0	2009.3
12.35	1989.0	2010.1
12.36	1972.0	2011.0
12.37	2016.0	2011.8
12.38	2004.0	2012.6
12.39	2013.0	2013.4
12.4	2087.0	2014.2
12.41	2024.0	2015.1
12.42	2045.0	2015.9
12.43	2030.0	2016.7
12.44	2060.0	2017.5
12.45	2020.0	2018.3
12.46	2030.0	2019.1
12.47	2025.0	2019.9
12.48	1999.0	2020.7
12.49	2061.0	2021.5
12.5	2103.0	2022.4
12.51	2077.0	2023.2
12.52	2090.0	2024.0
12.53	2042.0	2024.8
12.54	2039.0	2025.6
12.55	2034.0	2026.4
12.56	2038.0	2027.2
12.57	2006.0	2027.9
12.58	2063.0	2028.7
12.59	2075.0	2029.5
12.6	2052.0	2030.3
12.61	1999.0	2031.1
12.62	1998.0	2031.9
12.63	2096.0	2032.7
12.64	2087.0	2033.4
12.65	2081.0	2034.2
12.66	2085.0	2035.0
12.67	2073.0	2035.8
12.68	2102.0	2036.5
12.69	2075.0	2037.3
12.7	2060.0	2038.1
12.71	2043.0	2038.9
12.72	2078.0	2039.6
12.73	2059.0	2040.4
12.74	2038.0	2041.1
12.75	2042.0	2041.9
12.76	2048.0	2042.6
12.77	2039.0	2043.4
12.78	2018.0	2044.2
12.79	2026.0	2044.9
12.8	2039.0	2045.6
12.81	2110.0	2046.4
12.82	2150.0	2047.1
12.83	2090.0	2047.9
12.84	2065.0	2048.6
12.85	2079.0	2049.3
12.86	2100.0	2050.1
12.87	2081.0	2050.8
12.88	2057.0	2051.5
12.89	2014.0	2052.2
12.9	2031.0	2053.0
12.91	2086.0	2053.7
12.92	2087.0	2054.4
12.93	2109.0	2055.1
12.94	2108.0	2055.8
12.95	2081.0	2056.5
12.96	2073.0	2057.2
12.97	2026.0	2057.9
12.98	2021.0	2058.6
12.99	2081.0	2059.3
13.0	2071.0	2060.0
13.01	2076.0	2060.7
13.02	2078.0	2061.4
13.03	2077.0	2062.1
13.04	2074.0	2062.7
13.05	2065.0	2063.4
13.06	2107.0	2064.1
13.07	2095.0	2064.7
13.08	2118.0	2065.4
13.09	2028.0	2066.1
13.1	2036.0	2066.7
13.11	2097.0	2067.4
13.12	2147.0	2068.0
13.13	2096.0	2068.7
13.14	2096.0	2069.3
13.15	2112.0	2070.0
13.16	2122.0	2070.6
13.17	2114.0	2071.3
13.18	2078.0	2071.9
13.19	2102.0	2072.5
13.2	2109.0	2073.1
13.21	2082.0	2073.8
13.22	2076.0	2074.4
13.23	2091.0	2075.0
13.24	2061.0	2075.6
13.25	2102.0	2076.2
13.26	2143.0	2076.8
13.27	2166.0	2077.4
13.28	2142.0	2078.0
13.29	2098.0	2078.6
13.3	2145.0	2079.2
13.31	2153.0	2079.8
13.32	2146.0	2080.3
13.33	2094.0	2080.9
13.34	2086.0	2081.5
13.35	2039.0	2082.1
13.36	2085.0	2082.6
13.37	2142.0	2083.2
13.38	2090.0	2083.7
13.39	2102.0	2084.3
13.4	2147.0	2084.8
13.41	2105.0	2085.4
13.42	2106.0	2085.9
13.43	2101.0	2086.5
13.44	2092.0	2087.0
13.45	2109.0	2087.5
13.46	2116.0	2088.0
13.47	2146.0	2088.6
13.48	2076.0	2089.1
13.49	2145.0	2089.6
13.5	2172.0	2090.1
13.51	2116.0	2090.6
13.52	2122.0	2091.1
13.53	2122.0	2091.6
13.54	2116.0	2092.1
13.55	2077.0	2092.6
13.56	2104.0	2093.0
13.57	2085.0	2093.5
13.58	2125.0	2094.0
13.59	2156.0	2094.5
13.6	2150.0	2094.9
13.61	2148.0	2095.4
13.62	2157.0	2095.9
13.63	2124.0	2096.3
13.64	2126.0	2096.8
13.65	2136.0	2097.2
13.66	2156.0	2097.7
13.67	2105.0	2098.1
13.68	2120.0	2098.5
13.69	2161.0	2099.0
13.7	2133.0	2099.4
13.71	2148.0	2099.8
13.72	2133.0	2100.2
13.73	2121.0	2100.7
13.74	2150.0	2101.1
13.75	2137.0	2101.5
13.76	2124.0	2101.9
13.77	2115.0	2102.3
13.78	2138.0	2102.7
13.79	2164.0	2103.1
13.8	2161.0	2103.5
13.81	2132.0	2103.9
13.82	2105.0	2104.3
13.83	2132.0	2104.6
13.84	2164.0	2105.0
13.85	2139.0	2105.4
13.86	2121.0	2105.7
13.87	2139.0	2106.1
13.88	2199.0	2106.5
13.89	2176.0	2106.8
13.9	2142.0	2107.2
13.91	2171.0	2107.5
13.92	2189.0	2107.9
13.93	2173.0	2108.2
13.94	2186.0	2108.6
13.95	2146.0	2108.9
13.96	2182.0	2109.2
13.97	2178.0	2109.5
13.98	2121.0	2109.9
13.99	2127.0	2110.2
14.0	2164.0	2110.5
14.01	2150.0	2110.8
14.02	2138.0	2111.1
14.03	2137.0	2111.4
14.04	2124.0	2111.7
14.05	2156.0	2112.0
14.06	2199.0	2112.3
14.07	2213.0	2112.6
14.08	2254.0	2112.9
14.09	2168.0	2113.2
14.1	2114.0	2113.5
14.11	2136.0	2113.7
14.12	2220.0	2114.0
14.13	2212.0	2114.3
14.14	2225.0	2114.5
14.15	2160.0	2114.8
14.16	2145.0	2115.1
14.17	2132.0	2115.3
14.18	2132.0	2115.6
14.19	2149.0	2115.8
14.2	2157.0	2116.1
14.21	2120.0	2116.3
14.22	2149.0	2116.5
14.23	2140.0	2116.8
14.24	2140.0	2117.0
14.25	2137.0	2117.2
14.26	2119.0	2117.4
14.27	2149.0	2117.7
14.28	2205.0	2117.9
14.29	2241.0	2118.1
14.3	2180.0	2118.3
14.31	2163.0	2118.5
14.32	2173.0	2118.7
14.33	2166.0	2118.9
14.34	2143.0	2119.1
14.35	2187.0	2119.3
14.36	2217.0	2119.5
14.37	2212.0	2119.7
14.38	2221.0	2119.8
14.39	2192.0	2120.0
14.4	2192.0	2120.2
14.41	2172.0	2120.4
14.42	2169.0	2120.5
14.43	2179.0	2120.7
14.44	2177.0	2120.9
14.45	2185.0	2121.0
14.46	2151.0	2121.2
14.47	2144.0	2121.3
14.48	2160.0	2121.5
14.49	2175.0	2121.6
14.5	2176.0	2121.7
14.51	2202.0	2121.9
14.52	2188.0	2122.0
14.53	2170.0	2122.1
14.54	2132.0	2122.3
14.55	2123.0	2122.4
14.56	2146.0	2122.5
14.57	2135.0	2122.6
14.58	2098.0	2122.7
14.59	2156.0	2122.8
14.6	2168.0	2123.0
14.61	2135.0	2123.1
14.62	2154.0	2123.2
14.63	2146.0	2123.3
14.64	2168.0	2123.3
14.65	2193.0	2123.4
14.66	2212.0	2123.5
14.67	2237.0	2123.6
14.68	2246.0	2123.7
14.69	2190.0	2123.8
14.7	2140.0	2123.8
14.71	2189.0	2123.9
14.72	2160.0	2124.0
14.73	2135.0	2124.0
14.74	2143.0	2124.1
14.75	2138.0	2124.1
14.76	2158.0	2124.2
14.77	2197.0	2124.3
14.78	2167.0	2124.3
14.79	2193.0	2124.3
14.8	2181.0	2124.4
14.81	2092.0	2124.4
14.82	2087.0	2124.5
14.83	2155.0	2124.5
14.84	2221.0	2124.5
14.85	2206.0	2124.5
14.86	2158.0	2124.6
14.87	2150.0	2124.6
14.88	2180.0	2124.6
14.89	2197.0	2124.6
14.9	2149.0	2124.6
14.91	2125.0	2124.6
14.92	2158.0	2124.6
14.93	2162.0	2124.6
14.94	2159.0	2124.6
14.95	2177.0	2124.6
14.96	2190.0	2124.6
14.97	2241.0	2124.6
14.98	2225.0	2124.6
14.99	2241.0	2124.6
15.0	2264.0	2124.5
15.01	2233.0	2124.5
15.02	2197.0	2124.5
15.03	2161.0	2124.4
15.04	2157.0	2124.4
15.05	2182.0	2124.4
15.06	2205.0	2124.3
15.07	2201.0	2124.3
15.08	2229.0	2124.2
15.09	2233.0	2124.2
15.1	2239.0	2124.1
15.11	2255.0	2124.1
15.12	2235.0	2124.0
15.13	2249.0	2124.0
15.14	2249.0	2123.9
15.15	2245.0	2123.8
15.16	2248.0	2123.8
15.17	2303.0	2123.7
15.18	2299.0	2123.6
15.19	2302.0	2123.5
15.2	2308.0	2123.4
15.21	2321.0	2123.4
15.22	2311.0	2123.3
15.23	2321.0	2123.2
15.24	2345.0	2123.1
15.25	2373.0	2123.0
15.26	2354.0	2122.9
15.27	2359.0	2122.8
15.28	2437.0	2122.7
15.29	2478.0	2122.6
15.3	2518.0	2122.4
15.31	2519.0	2122.3
15.32	2566.0	2122.2
15.33	2668.0	2122.1
15.34	2704.0	2122.0
15.35	2696.0	2121.8
15.36	2702.0	2121.7
15.37	2801.0	2121.6
15.38	2871.0	2121.4
15.39	2937.0	2121.3
15.4	2999.0	2121.2
15.41	3026.0	2121.0
15.42	3042.0	2120.9
15.43	3054.0	2120.7
15.44	3020.0	2120.6
15.45	2941.0	2120.4
15.46	2890.0	2120.3
15.47	2881.0	2120.1
15.48	2858.0	2119.9
15.49	2818.0	2119.8
15.5	2737.0	2119.6
15.51	2626.0	2119.4
15.52	2546.0	2119.2
15.53	2504.0	2119.1
15.54	2465.0	2118.9
15.55	2460.0	2118.7
15.56	2436.0	2118.5
15.57	2413.0	2118.3
15.58	2403.0	2118.1
15.59	2353.0	2117.9
15.6	2309.0	2117.7
15.61	2322.0	2117.5
15.62	2299.0	2117.3
15.63	2310.0	2117.1
15.64	2297.0	2116.9
15.65	2277.0	2116.7
15.66	2319.0	2116.5
15.67	2301.0	2116.3
15.68	2236.0	2116.1
15.69	2246.0	2115.8
15.7	2219.0	2115.6
15.71	2183.0	2115.4
15.72	2201.0	2115.2
15.73	2227.0	2114.9
15.74	2232.0	2114.7
15.75	2236.0	2114.5
15.76	2250.0	2114.2
15.77	2247.0	2114.0
15.78	2243.0	2113.7
15.79	2213.0	2113.5
15.8	2196.0	2113.2
15.81	2182.0	2113.0
15.82	2191.0	2112.7
15.83	2221.0	2112.5
15.84	2192.0	2112.2
15.85	2163.0	2111.9
15.86	2160.0	2111.7
15.87	2163.0	2111.4
15.88	2171.0	2111.1
15.89	2150.0	2110.9
15.9	2179.0	2110.6
15.91	2173.0	2110.3
15.92	2161.0	2110.0
15.93	2196.0	2109.7
15.94	2168.0	2109.4
15.95	2127.0	2109.2
15.96	2113.0	2108.9
15.97	2121.0	2108.6
15.98	2145.0	2108.3
15.99	2180.0	2108.0
16.0	2179.0	2107.7
16.01	2188.0	2107.4
16.02	2179.0	2107.1
16.03	2168.0	2106.7
16.04	2217.0	2106.4
16.05	2211.0	2106.1
16.06	2159.0	2105.8
16.07	2191.0	2105.5
16.08	2212.0	2105.2
16.09	2209.0	2104.8
16.1	2173.0	2104.5
16.11	2121.0	2104.2
16.12	2112.0	2103.8
16.13	2125.0	2103.5
16.14	2143.0	2103.2
16.15	2155.0	2102.8
16.16	2147.0	2102.5
16.17	2149.0	2102.1
16.18	2156.0	2101.8
16.19	2146.0	2101.5
16.2	2132.0	2101.1
16.21	2132.0	2100.7
16.22	2117.0	2100.4
16.23	2134.0	2100.0
16.24	2154.0	2099.7
16.25	2140.0	2099.3
16.26	2137.0	2098.9
16.27	2100.0	2098.6
16.28	2111.0	2098.2
16.29	2127.0	2097.8
16.3	2111.0	2097.5
16.31	2100.0	2097.1
16.32	2098.0	2096.7
16.33	2113.0	2096.3
16.34	2156.0	2095.9
16.35	2189.0	2095.6
16.36	2181.0	2095.2
16.37	2158.0	2094.8
16.38	2122.0	2094.4
16.39	2106.0	2094.0
16.4	2138.0	2093.6
16.41	2143.0	2093.2
16.42	2104.0	2092.8
16.43	2126.0	2092.4
16.44	2116.0	2092.0
16.45	2065.0	2091.6
16.46	2075.0	2091.2
16.47	2092.0	2090.7
16.48	2103.0	2090.3
16.49	2117.0	2089.9
16.5	2092.0	2089.5
16.51	2101.0	2089.1
16.52	2120.0	2088.6
16.53	2154.0	2088.2
16.54	2147.0	2087.8
16.55	2102.0	2087.3
16.56	2089.0	2086.9
16.57	2149.0	2086.5
16.58	2150.0	2086.0
16.59	2122.0	2085.6
16.6	2105.0	2085.2
16.61	2088.0	2084.7
16.62	2104.0	2084.3
16.63	2141.0	2083.8
16.64	2140.0	2083.4
16.65	2125.0	2082.9
16.66	2091.0	2082.5
16.67	2060.0	2082.0
16.68	2056.0	2081.5
16.69	2072.0	2081.1
16.7	2134.0	2080.6
16.71	2138.0	2080.2
16.72	2079.0	2079.7
16.73	2071.0	2079.2
16.74	2091.0	2078.7
16.75	2095.0	2078.3
16.76	2111.0	2077.8
16.77	2112.0	2077.3
16.78	2117.0	2076.8
16.79	2130.0	2076.4
16.8	2116.0	2075.9
16.81	2114.0	2075.4
16.82	2105.0	2074.9
16.83	2080.0	2074.4
16.84	2100.0	2073.9
16.85	2113.0	2073.4
16.86	2066.0	2072.9
16.87	2038.0	2072.4
16.88	2060.0	2071.9
16.89	2102.0	2071.4
16.9	2083.0	2070.9
16.91	2067.0	2070.4
16.92	2111.0	2069.9
16.93	2103.0	2069.4
16.94	2095.0	2068.9
16.95	2140.0	2068.4
16.96	2123.0	2067.9
16.97	2088.0	2067.3
16.98	2069.0	2066.8
16.99	2060.0	2066.3
17.0	2089.0	2065.8
17.01	2128.0	2065.2
17.02	2149.0	2064.7
17.03	2148.0	2064.2
17.04	2121.0	2063.7
17.05	2107.0	2063.1
17.06	2115.0	2062.6
17.07	2115.0	2062.1
17.08	2103.0	2061.5
17.09	2094.0	2061.0
17.1	2077.0	2060.4
17.11	2073.0	2059.9
17.12	2073.0	2059.3
17.13	2099.0	2058.8
17.14	2113.0	2058.2
17.15	2081.0	2057.7
17.16	2062.0	2057.1
17.17	2080.0	2056.6
17.18	2099.0	2056.0
17.19	2071.0	2055.5
17.2	2043.0	2054.9
17.21	2080.0	2054.3
17.22	2107.0	2053.8
17.23	2087.0	2053.2
17.24	2061.0	2052.6
17.25	2043.0	2052.1
17.26	2057.0	2051.5
17.27	2089.0	2050.9
17.28	2093.0	2050.4
17.29	2082.0	2049.8
17.3	2119.0	2049.2
17.31	2108.0	2048.6
17.32	2022.0	2048.0
17.33	2000.0	2047.5
17.34	2020.0	2046.9
17.35	2057.0	2046.3
17.36	2114.0	2045.7
17.37	2131.0	2045.1
17.38	2078.0	2044.5
17.39	2035.0	2043.9
17.4	2066.0	2043.3
17.41	2080.0	2042.7
17.42	2069.0	2042.1
17.43	2105.0	2041.5
17.44	2130.0	2040.9
17.45	2106.0	2040.3
17.46	2081.0	2039.7
17.47	2046.0	2039.1
17.48	2056.0	2038.5
17.49	2086.0	2037.9
17.5	2079.0	2037.3
17.51	2087.0	2036.7
17.52	2114.0	2036.0
17.53	2121.0	2035.4
17.54	2104.0	2034.8
17.55	2087.0	2034.2
17.56	2057.0	2033.6
17.57	2063.0	2032.9
17.58	2081.0	2032.3
17.59	2049.0	2031.7
17.6	2029.0	2031.1
17.61	2066.0	2030.4
17.62	2096.0	2029.8
17.63	2083.0	2029.2
17.64	2071.0	2028.5
17.65	2065.0	2027.9
17.66	2063.0	2027.3
17.67	2068.0	2026.6
17.68	2060.0	2026.0
17.69	2053.0	2025.3
17.7	2067.0	2024.7
17.71	2071.0	2024.0
17.72	2075.0	2023.4
17.73	2075.0	2022.8
17.74	2042.0	2022.1
17.75	2027.0	2021.5
17.76	2050.0	2020.8
17.77	2049.0	2020.1
17.78	2036.0	2019.5
17.79	2051.0	2018.8
17.8	2069.0	2018.2
17.81	2085.0	2017.5
17.82	2074.0	2016.9
17.83	2026.0	2016.2
17.84	2020.0	2015.5
17.85	2037.0	2014.9
17.86	2038.0	2014.2
17.87	2077.0	2013.5
17.88	2096.0	2012.9
17.89	2035.0	2012.2
17.9	1975.0	2011.5
17.91	2018.0	2010.8
17.92	2054.0	2010.2
17.93	2046.0	2009.5
17.94	2040.0	2008.8
17.95	2037.0	2008.1
17.96	2069.0	2007.4
17.97	2094.0	2006.8
17.98	2104.0	2006.1
17.99	2071.0	2005.4
18.0	2033.0	2004.7
18.01	2047.0	2004.0
18.02	2105.0	2003.3
18.03	2106.0	2002.6
18.04	2042.0	2001.9
18.05	2013.0	2001.3
18.06	2037.0	2000.6
18.07	2100.0	1999.9
18.08	2143.0	1999.2
18.09	2121.0	1998.5
18.1	2066.0	1997.8
18.11	2050.0	1997.1
18.12	2074.0	1996.4
18.13	2100.0	1995.7
18.14	2090.0	1995.0
18.15	2085.0	1994.3
18.16	2091.0	1993.5
18.17	2062.0	1992.8
18.18	2095.0	1992.1
18.19	2137.0	1991.4
18.2	2146.0	1990.7
18.21	2123.0	1990.0
18.22	2115.0	1989.3
18.23	2111.0	1988.6
18.24	2125.0	1987.8
18.25	2125.0	1987.1
18.26	2122.0	1986.4
18.27	2105.0	1985.7
18.28	2088.0	1985.0
18.29	2121.0	1984.2
18.3	2118.0	1983.5
18.31	2074.0	1982.8
18.32	2101.0	1982.1
18.33	2151.0	1981.3
18.34	2139.0	1980.6
18.35	2085.0	1979.9
18.36	2070.0	1979.2
18.37	2070.0	1978.4
18.38	2023.0	1977.7
18.39	1999.0	1977.0
18.4	2023.0	1976.2
18.41	2046.0	1975.5
18.42	2031.0	1974.7
18.43	2028.0	1974.0
18.44	2040.0	1973.3
18.45	2028.0	1972.5
18.46	1998.0	1971.8
18.47	2017.0	1971.0
18.48	2058.0	1970.3
18.49	2024.0	1969.6
18.5	1977.0	1968.8
18.51	1971.0	1968.1
18.52	1997.0	1967.3
18.53	2047.0	1966.6
18.54	2060.0	1965.8
18.55	2004.0	1965.1
18.56	1963.0	1964.3
18.57	2054.0	1963.6
18.58	2080.0	1962.8
18.59	1999.0	1962.1
18.6	2038.0	1961.3
18.61	2060.0	1960.5
18.62	2021.0	1959.8
18.63	2027.0	1959.0
18.64	2034.0	1958.3
18.65	2012.0	1957.5
18.66	2005.0	1956.7
18.67	2042.0	1956.0
18.68	2057.0	1955.2
18.69	2044.0	1954.4
18.7	2043.0	1953.7
18.71	2012.0	1952.9
18.72	1982.0	1952.1
18.73	2015.0	1951.4
18.74	2003.0	1950.6
18.75	1940.0	1949.8
18.76	1968.0	1949.1
18.77	2008.0	1948.3
18.78	2004.0	1947.5
18.79	2029.0	1946.8
18.8	2041.0	1946.0
18.81	2004.0	1945.2
18.82	1974.0	1944.4
18.83	1989.0	1943.6
18.84	1971.0	1942.9
18.85	1960.0	1942.1
18.86	2022.0	1941.3
18.87	2016.0	1940.5
18.88	1981.0	1939.8
18.89	2005.0	1939.0
18.9	2012.0	1938.2
18.91	2000.0	1937.4
18.92	1982.0	1936.6
18.93	1978.0	1935.8
18.94	1981.0	1935.0
18.95	1994.0	1934.3
18.96	2019.0	1933.5
18.97	2016.0	1932.7
18.98	2011.0	1931.9
18.99	2011.0	1931.1
19.0	1978.0	1930.3
19.01	1954.0	1929.5
19.02	1993.0	1928.7
19.03	1985.0	1927.9
19.04	1979.0	1927.1
19.05	1974.0	1926.3
19.06	1974.0	1925.6
19.07	1946.0	1924.8
19.08	1965.0	1924.0
19.09	2014.0	1923.2
19.1	2023.0	1922.4
19.11	2005.0	1921.6
19.12	1982.0	1920.8
19.13	1943.0	1920.0
19.14	1924.0	1919.2
19.15	1950.0	1918.4
19.16	1948.0	1917.6
19.17	1992.0	1916.8
19.18	1966.0	1916.0
19.19	1928.0	1915.2
19.2	1944.0	1914.4
19.21	1974.0	1913.5
19.22	1971.0	1912.7
19.23	1929.0	1911.9
19.24	1962.0	1911.1
19.25	1966.0	1910.3
19.26	1995.0	1909.5
19.27	1993.0	1908.7
19.28	1984.0	1907.9
19.29	1969.0	1907.1
19.3	1929.0	1906.3
19.31	1923.0	1905.5
19.32	1933.0	1904.6
19.33	1941.0	1903.8
19.34	1972.0	1903.0
19.35	1998.0	1902.2
19.36	1950.0	1901.4
19.37	1928.0	1900.6
19.38	1949.0	1899.8
19.39	1977.0	1899.0
19.4	1983.0	1898.1
19.41	1961.0	1897.3
19.42	1940.0	1896.5
19.43	1917.0	1895.7
19.44	1896.0	1894.9
19.45	1883.0	1894.0
19.46	1906.0	1893.2
19.47	1953.0	1892.4
19.48	1973.0	1891.6
19.49	1973.0	1890.8
19.5	1914.0	1889.9
19.51	1892.0	1889.1
19.52	1903.0	1888.3
19.53	1929.0	1887.5
19.54	1918.0	1886.7
19.55	1911.0	1885.8
19.56	1948.0	1885.0
19.57	1949.0	1884.2
19.58	1913.0	1883.4
19.59	1902.0	1882.5
19.6	1921.0	1881.7
19.61	1940.0	1880.9
19.62	1957.0	1880.1
19.63	1938.0	1879.2
19.64	1940.0	1878.4
19.65	1956.0	1877.6
19.66	1904.0	1876.8
19.67	1888.0	1875.9
19.68	1902.0	1875.1
19.69	1894.0	1874.3
19.7	1882.0	1873.4
19.71	1926.0	1872.6
19.72	1953.0	1871.8
19.73	1919.0	1871.0
19.74	1890.0	1870.1
19.75	1920.0	1869.3
19.76	1917.0	1868.5
19.77	1929.0	1867.6
19.78	1949.0	1866.8
19.79	1875.0	1866.0
19.8	1833.0	1865.1
19.81	1836.0	1864.3
19.82	1844.0	1863.5
19.83	1876.0	1862.6
19.84	1920.0	1861.8
19.85	1931.0	1861.0
19.86	1920.0	1860.1
19.87	1876.0	1859.3
19.88	1875.0	1858.5
19.89	1876.0	1857.6
19.9	1868.0	1856.8
19.91	1891.0	1856.0
19.92	1899.0	1855.1
19.93	1898.0	1854.3
19.94	1904.0	1853.5
19.95	1892.0	1852.6
19.96	1864.0	1851.8
19.97	1830.0	1851.0
19.98	1835.0	1850.1
19.99	1908.0	1849.3
20.0	1967.0	1848.5
20.01	1921.0	1847.6
20.02	1861.0	1846.8
20.03	1863.0	1845.9
20.04	1891.0	1845.1
20.05	1875.0	1844.3
20.06	1888.0	1843.4
20.07	1889.0	1842.6
20.08	1848.0	1841.8
20.09	1877.0	1840.9
20.1	1894.0	1840.1
20.11	1853.0	1839.2
20.12	1898.0	1838.4
20.13	1863.0	1837.6
20.14	1856.0	1836.7
20.15	1873.0	1835.9
20.16	1886.0	1835.0
20.17	1864.0	1834.2
20.18	1838.0	1833.4
20.19	1845.0	1832.5
20.2	1828.0	1831.7
20.21	1822.0	1830.9
20.22	1839.0	1830.0
20.23	1856.0	1829.2
20.24	1848.0	1828.3
20.25	1836.0	1827.5
20.26	1897.0	1826.7
20.27	1915.0	1825.8
20.28	1890.0	1825.0
20.29	1867.0	1824.1
20.3	1862.0	1823.3
20.31	1885.0	1822.5
20.32	1842.0	1821.6
20.33	1834.0	1820.8
20.34	1840.0	1820.0
20.35	1831.0	1819.1
20.36	1873.0	1818.3
20.37	1917.0	1817.4
20.38	1931.0	1816.6
20.39	1880.0	1815.8
20.4	1835.0	1814.9
20.41	1872.0	1814.1
20.42	1928.0	1813.2
20.43	1920.0	1812.4
20.44	1876.0	1811.6
20.45	1832.0	1810.7
20.46	1807.0	1809.9
20.47	1822.0	1809.0
20.48	1831.0	1808.2
20.49	1790.0	1807.4
20.5	1830.0	1806.5
20.51	1833.0	1805.7
20.52	1793.0	1804.8
20.53	1800.0	1804.0
20.54	1807.0	1803.2
20.55	1800.0	1802.3
20.56	1851.0	1801.5
20.57	1835.0	1800.7
20.58	1822.0	1799.8
20.59	1841.0	1799.0
20.6	1850.0	1798.1
20.61	1843.0	1797.3
20.62	1809.0	1796.5
20.63	1777.0	1795.6
20.64	1783.0	1794.8
20.65	1803.0	1793.9
20.66	1859.0	1793.1
20.67	1840.0	1792.3
20.68	1859.0	1791.4
20.69	1814.0	1790.6
20.7	1818.0	1789.7
20.71	1801.0	1788.9
20.72	1822.0	1788.1
20.73	1831.0	1787.2
20.74	1815.0	1786.4
20.75	1786.0	1785.5
20.76	1801.0	1784.7
20.77	1809.0	1783.9
20.78	1834.0	1783.0
20.79	1797.0	1782.2
20.8	1764.0	1781.4
20.81	1790.0	1780.5
20.82	1774.0	1779.7
20.83	1801.0	1778.8
20.84	1835.0	1778.0
20.85	1810.0	1777.2
20.86	1786.0	1776.3
20.87	1803.0	1775.5
20.88	1852.0	1774.6
20.89	1814.0	1773.8
20.9	1786.0	1773.0
20.91	1779.0	1772.1
20.92	1835.0	1771.3
20.93	1840.0	1770.5
20.94	1816.0	1769.6
20.95	1807.0	1768.8
20.96	1790.0	1767.9
20.97	1777.0	1767.1
20.98	1736.0	1766.3
20.99	1718.0	1765.4
21.0	1767.0	1764.6
21.01	1824.0	1763.7
21.02	1794.0	1762.9
21.03	1759.0	1762.1
21.04	1781.0	1761.2
21.05	1798.0	1760.4
21.06	1771.0	1759.6
21.07	1787.0	1758.7
21.08	1774.0	1757.9
21.09	1754.0	1757.0
21.1	1783.0	1756.2
21.11	1771.0	1755.4
21.12	1803.0	1754.5
21.13	1794.0	1753.7
21.14	1796.0	1752.9
21.15	1845.0	1752.0
21.16	1796.0	1751.2
21.17	1781.0	1750.4
21.18	1741.0	1749.5
21.19	1757.0	1748.7
21.2	1806.0	1747.8
21.21	1771.0	1747.0
21.22	1780.0	1746.2
21.23	1837.0	1745.3
21.24	1803.0	1744.5
21.25	1765.0	1743.7
21.26	1778.0	1742.8
21.27	1798.0	1742.0
21.28	1784.0	1741.1
21.29	1777.0	1740.3
21.3	1787.0	1739.5
21.31	1784.0	1738.6
21.32	1780.0	1737.8
21.33	1767.0	1737.0
21.34	1768.0	1736.1
21.35	1786.0	1735.3
21.36	1749.0	1734.5
21.37	1783.0	1733.6
21.38	1733.0	1732.8
21.39	1741.0	1732.0
21.4	1766.0	1731.1
21.41	1761.0	1730.3
21.42	1747.0	1729.5
21.43	1734.0	1728.6
21.44	1764.0	1727.8
21.45	1744.0	1727.0
21.46	1780.0	1726.1
21.47	1783.0	1725.3
21.48	1714.0	1724.5
21.49	1695.0	1723.6
21.5	1755.0	1722.8
21.51	1765.0	1721.9
21.52	1752.0	1721.1
21.53	1807.0	1720.3
21.54	1748.0	1719.4
21.55	1729.0	1718.6
21.56	1699.0	1717.8
21.57	1691.0	1716.9
21.58	1706.0	1716.1
21.59	1706.0	1715.3
21.6	1744.0	1714.5
21.61	1743.0	1713.6
21.62	1708.0	1712.8
21.63	1741.0	1712.0
21.64	1739.0	1711.1
21.65	1700.0	1710.3
21.66	1714.0	1709.5
21.67	1728.0	1708.6
21.68	1747.0	1707.8
21.69	1765.0	1707.0
21.7	1767.0	1706.1
21.71	1750.0	1705.3
21.72	1733.0	1704.5
21.73	1724.0	1703.6
21.74	1728.0	1702.8
21.75	1702.0	1702.0
21.76	1710.0	1701.1
21.77	1669.0	1700.3
21.78	1660.0	1699.5
21.79	1725.0	1698.7
21.8	1740.0	1697.8
21.81	1729.0	1697.0
21.82	1710.0	1696.2
21.83	1772.0	1695.3
21.84	1763.0	1694.5
21.85	1732.0	1693.7
21.86	1691.0	1692.9
21.87	1721.0	1692.0
21.88	1720.0	1691.2
21.89	1725.0	1690.4
21.9	1687.0	1689.5
21.91	1657.0	1688.7
21.92	1688.0	1687.9
21.93	1723.0	1687.1
21.94	1729.0	1686.2
21.95	1680.0	1685.4
21.96	1655.0	1684.6
21.97	1632.0	1683.7
21.98	1654.0	1682.9
21.99	1642.0	1682.1
22.0	1622.0	1681.3
22.01	1680.0	1680.4
22.02	1663.0	1679.6
22.03	1687.0	1678.8
22.04	1723.0	1678.0
22.05	1688.0	1677.1
22.06	1682.0	1676.3
22.07	1720.0	1675.5
22.08	1774.0	1674.7
22.09	1735.0	1673.8
22.1	1698.0	1673.0
22.11	1690.0	1672.2
22.12	1690.0	1671.4
22.13	1716.0	1670.5
22.14	1672.0	1669.7
22.15	1663.0	1668.9
22.16	1678.0	1668.1
22.17	1652.0	1667.2
22.18	1637.0	1666.4
22.19	1697.0	1665.6
22.2	1667.0	1664.8
22.21	1645.0	1664.0
22.22	1679.0	1663.1
22.23	1641.0	1662.3
22.24	1604.0	1661.5
22.25	1643.0	1660.7
22.26	1648.0	1659.8
22.27	1607.0	1659.0
22.28	1657.0	1658.2
22.29	1719.0	1657.4
22.3	1695.0	1656.6
22.31	1667.0	1655.7
22.32	1638.0	1654.9
22.33	1663.0	1654.1
22.34	1658.0	1653.3
22.35	1653.0	1652.5
22.36	1669.0	1651.6
22.37	1668.0	1650.8
22.38	1624.0	1650.0
22.39	1648.0	1649.2
22.4	1641.0	1648.4
22.41	1650.0	1647.5
22.42	1628.0	1646.7
22.43	1627.0	1645.9
22.44	1636.0	1645.1
22.45	1727.0	1644.3
22.46	1680.0	1643.5
22.47	1673.0	1642.6
22.48	1683.0	1641.8
22.49	1671.0	1641.0
22.5	1641.0	1640.2
22.51	1631.0	1639.4
22.52	1652.0	1638.6
22.53	1692.0	1637.7
22.54	1707.0	1636.9
22.55	1704.0	1636.1
22.56	1651.0	1635.3
22.57	1667.0	1634.5
22.58	1649.0	1633.7
22.59	1669.0	1632.8
22.6	1640.0	1632.0
22.61	1684.0	1631.2
22.62	1652.0	1630.4
22.63	1637.0	1629.6
22.64	1650.0	1628.8
22.65	1695.0	1628.0
22.66	1687.0	1627.2
22.67	1684.0	1626.3
22.68	1676.0	1625.5
22.69	1621.0	1624.7
22.7	1658.0	1623.9
22.71	1662.0	1623.1
22.72	1646.0	1622.3
22.73	1647.0	1621.5
22.74	1645.0	1620.7
22.75	1674.0	1619.9
22.76	1660.0	1619.0
22.77	1697.0	1618.2
22.78	1668.0	1617.4
22.79	1641.0	1616.6
22.8	1717.0	1615.8
22.81	1674.0	1615.0
22.82	1640.0	1614.2
22.83	1672.0	1613.4
22.84	1682.0	1612.6
22.85	1672.0	1611.8
22.86	1672.0	1611.0
22.87	1709.0	1610.2
22.88	1735.0	1609.3
22.89	1700.0	1608.5
22.9	1686.0	1607.7
22.91	1683.0	1606.9
22.92	1722.0	1606.1
22.93	1711.0	1605.3
22.94	1711.0	1604.5
22.95	1718.0	1603.7
22.96	1731.0	1602.9
22.97	1767.0	1602.1
22.98	1730.0	1601.3
22.99	1800.0	1600.5
23.0	1819.0	1599.7
23.01	1824.0	1598.9
23.02	1854.0	1598.1
23.03	1885.0	1597.3
23.04	1947.0	1596.5
23.05	1941.0	1595.7
23.06	2004.0	1594.9
23.07	2069.0	1594.1
23.08	2110.0	1593.3
23.09	2080.0	1592.5
23.1	2173.0	1591.7
23.11	2154.0	1590.9
23.12	2154.0	1590.1
23.13	2212.0	1589.3
23.14	2312.0	1588.5
23.15	2294.0	1587.7
23.16	2212.0	1586.9
23.17	2156.0	1586.1
23.18	2158.0	1585.3
23.19	2110.0	1584.5
23.2	2004.0	1583.7
23.21	1984.0	1582.9
23.22	2016.0	1582.1
23.23	1957.0	1581.3
23.24	1911.0	1580.5
23.25	1831.0	1579.7
23.26	1809.0	1578.9
23.27	1819.0	1578.1
23.28	1791.0	1577.3
23.29	1792.0	1576.5
23.3	1739.0	1575.7
23.31	1734.0	1574.9
23.32	1692.0	1574.1
23.33	1685.0	1573.3
23.34	1687.0	1572.6
23.35	1674.0	1571.8
23.36	1679.0	1571.0
23.37	1686.0	1570.2
23.38	1707.0	1569.4
23.39	1682.0	1568.6
23.4	1622.0	1567.8
23.41	1612.0	1567.0
23.42	1628.0	1566.2
23.43	1619.0	1565.4
23.44	1637.0	1564.6
23.45	1636.0	1563.9
23.46	1574.0	1563.1
23.47	1632.0	1562.3
23.48	1599.0	1561.5
23.49	1589.0	1560.7
23.5	1600.0	1559.9
23.51	1595.0	1559.1
23.52	1640.0	1558.3
23.53	1590.0	1557.6
23.54	1544.0	1556.8
23.55	1597.0	1556.0
23.56	1591.0	1555.2
23.57	1598.0	1554.4
23.58	1623.0	1553.6
23.59	1565.0	1552.9
23.6	1544.0	1552.1
23.61	1621.0	1551.3
23.62	1597.0	1550.5
23.63	1568.0	1549.7
23.64	1590.0	1548.9
23.65	1600.0	1548.2
23.66	1604.0	1547.4
23.67	1600.0	1546.6
23.68	1589.0	1545.8
23.69	1565.0	1545.0
23.7	1546.0	1544.3
23.71	1587.0	1543.5
23.72	1550.0	1542.7
23.73	1607.0	1541.9
23.74	1604.0	1541.1
23.75	1579.0	1540.4
23.76	1587.0	1539.6
23.77	1571.0	1538.8
23.78	1568.0	1538.0
23.79	1601.0	1537.2
23.8	1618.0	1536.5
23.81	1534.0	1535.7
23.82	1541.0	1534.9
23.83	1580.0	1534.1
23.84	1579.0	1533.4
23.85	1594.0	1532.6
23.86	1564.0	1531.8
23.87	1596.0	1531.1
23.88	1590.0	1530.3
23.89	1564.0	1529.5
23.9	1544.0	1528.7
23.91	1619.0	1528.0
23.92	1637.0	1527.2
23.93	1563.0	1526.4
23.94	1563.0	1525.6
23.95	1571.0	1524.9
23.96	1604.0	1524.1
23.97	1568.0	1523.3
23.98	1539.0	1522.6
23.99	1510.0	1521.8
24.0	1533.0	1521.0
24.01	1567.0	1520.3
24.02	1608.0	1519.5
24.03	1590.0	1518.7
24.04	1613.0	1518.0
24.05	1619.0	1517.2
24.06	1581.0	1516.4
24.07	1588.0	1515.7
24.08	1657.0	1514.9
24.09	1672.0	1514.1
24.1	1630.0	1513.4
24.11	1568.0	1512.6
24.12	1578.0	1511.8
24.13	1607.0	1511.1
24.14	1589.0	1510.3
24.15	1614.0	1509.6
24.16	1624.0	1508.8
24.17	1609.0	1508.0
24.18	1634.0	1507.3
24.19	1631.0	1506.5
24.2	1599.0	1505.8
24.21	1648.0	1505.0
24.22	1652.0	1504.2
24.23	1628.0	1503.5
24.24	1628.0	1502.7
24.25	1600.0	1502.0
24.26	1598.0	1501.2
24.27	1644.0	1500.5
24.28	1606.0	1499.7
24.29	1594.0	1498.9
24.3	1582.0	1498.2
24.31	1640.0	1497.4
24.32	1614.0	1496.7
24.33	1624.0	1495.9
24.34	1591.0	1495.2
24.35	1584.0	1494.4
24.36	1572.0	1493.7
24.37	1615.0	1492.9
24.38	1629.0	1492.2
24.39	1612.0	1491.4
24.4	1618.0	1490.7
24.41	1633.0	1489.9
24.42	1653.0	1489.2
24.43	1643.0	1488.4
24.44	1606.0	1487.7
24.45	1653.0	1486.9
24.46	1699.0	1486.2
24.47	1668.0	1485.4
24.48	1704.0	1484.7
24.49	1722.0	1483.9
24.5	1671.0	1483.2
24.51	1634.0	1482.4
24.52	1651.0	1481.7
24.53	1652.0	1480.9
24.54	1687.0	1480.2
24.55	1713.0	1479.5
24.56	1700.0	1478.7
24.57	1676.0	1478.0
24.58	1697.0	1477.2
24.59	1689.0	1476.5
24.6	1687.0	1475.7
24.61	1771.0	1475.0
24.62	1794.0	1474.3
24.63	1793.0	1473.5
24.64	1802.0	1472.8
24.65	1761.0	1472.0
24.66	1728.0	1471.3
24.67	1795.0	1470.6
24.68	1804.0	1469.8
24.69	1778.0	1469.1
24.7	1848.0	1468.4
24.71	1886.0	1467.6
24.72	1971.0	1466.9
24.73	1954.0	1466.2
24.74	1952.0	1465.4
24.75	1972.0	1464.7
24.76	2093.0	1464.0
24.77	2119.0	1463.2
24.78	2083.0	1462.5
24.79	2172.0	1461.8
24.8	2247.0	1461.0
24.81	2260.0	1460.3
24.82	2313.0	1459.6
24.83	2373.0	1458.8
24.84	2401.0	1458.1
24.85	2379.0	1457.4
24.86	2376.0	1456.6
24.87	2358.0	1455.9
24.88	2369.0	1455.2
24.89	2362.0	1454.5
24.9	2386.0	1453.7
24.91	2344.0	1453.0
24.92	2322.0	1452.3
24.93	2288.0	1451.6
24.94	2228.0	1450.8
24.95	2186.0	1450.1
24.96	2243.0	1449.4
24.97	2200.0	1448.7
24.98	2197.0	1447.9
24.99	2219.0	1447.2
25.0	2225.0	1446.5
25.01	2213.0	1445.8
25.02	2241.0	1445.1
25.03	2226.0	1444.3
25.04	2230.0	1443.6
25.05	2277.0	1442.9
25.06	2315.0	1442.2
25.07	2399.0	1441.5
25.08	2410.0	1440.8
25.09	2362.0	1440.0
25.1	2354.0	1439.3
25.11	2401.0	1438.6
25.12	2425.0	1437.9
25.13	2427.0	1437.2
25.14	2411.0	1436.5
25.15	2453.0	1435.7
25.16	2556.0	1435.0
25.17	2588.0	1434.3
25.18	2586.0	1433.6
25.19	2598.0	1432.9
25.2	2597.0	1432.2
25.21	2703.0	1431.5
25.22	2726.0	1430.8
25.23	2715.0	1430.1
25.24	2698.0	1429.4
25.25	2739.0	1428.7
25.26	2737.0	1427.9
25.27	2727.0	1427.2
25.28	2741.0	1426.5
25.29	2750.0	1425.8
25.3	2741.0	1425.1
25.31	2764.0	1424.4
25.32	2770.0	1423.7
25.33	2764.0	1423.0
25.34	2742.0	1422.3
25.35	2740.0	1421.6
25.36	2744.0	1420.9
25.37	2780.0	1420.2
25.38	2808.0	1419.5
25.39	2721.0	1418.8
25.4	2652.0	1418.1
25.41	2632.0	1417.4
25.42	2676.0	1416.7
25.43	2650.0	1416.0
25.44	2557.0	1415.3
25.45	2499.0	1414.6
25.46	2514.0	1413.9
25.47	2509.0	1413.2
25.48	2467.0	1412.5
25.49	2402.0	1411.8
25.5	2406.0	1411.2
25.51	2424.0	1410.5
25.52	2384.0	1409.8
25.53	2331.0	1409.1
25.54	2313.0	1408.4
25.55	2263.0	1407.7
25.56	2236.0	1407.0
25.57	2194.0	1406.3
25.58	2112.0	1405.6
25.59	2088.0	1404.9
25.6	2080.0	1404.3
25.61	2051.0	1403.6
25.62	2002.0	1402.9
25.63	1971.0	1402.2
25.64	1944.0	1401.5
25.65	1942.0	1400.8
25.66	1901.0	1400.1
25.67	1903.0	1399.5
25.68	1897.0	1398.8
25.69	1843.0	1398.1
25.7	1792.0	1397.4
25.71	1789.0	1396.7
25.72	1809.0	1396.1
25.73	1764.0	1395.4
25.74	1735.0	1394.7
25.75	1763.0	1394.0
25.76	1764.0	1393.3
25.77	1734.0	1392.7
25.78	1718.0	1392.0
25.79	1714.0	1391.3
25.8	1676.0	1390.6
25.81	1649.0	1390.0
25.82	1674.0	1389.3
25.83	1672.0	1388.6
25.84	1697.0	1387.9
25.85	1652.0	1387.3
25.86	1610.0	1386.6
25.87	1594.0	1385.9
25.88	1577.0	1385.3
25.89	1578.0	1384.6
25.9	1596.0	1383.9
25.91	1600.0	1383.3
25.92	1592.0	1382.6
25.93	1599.0	1381.9
25.94	1583.0	1381.3
25.95	1556.0	1380.6
25.96	1579.0	1379.9
25.97	1560.0	1379.3
25.98	1541.0	1378.6
25.99	1525.0	1377.9
26.0	1493.0	1377.3
26.01	1480.0	1376.6
26.02	1518.0	1376.0
26.03	1536.0	1375.3
26.04	1520.0	1374.6
26.05	1533.0	1374.0
26.06	1514.0	1373.3
26.07	1499.0	1372.7
26.08	1525.0	1372.0
26.09	1532.0	1371.3
26.1	1535.0	1370.7
26.11	1536.0	1370.0
26.12	1534.0	1369.4
26.13	1528.0	1368.7
26.14	1530.0	1368.1
26.15	1521.0	1367.4
26.16	1478.0	1366.8
26.17	1447.0	1366.1
26.18	1427.0	1365.5
26.19	1413.0	1364.8
26.2	1436.0	1364.2
26.21	1473.0	1363.5
26.22	1476.0	1362.9
26.23	1465.0	1362.2
26.24	1473.0	1361.6
26.25	1487.0	1360.9
26.26	1453.0	1360.3
26.27	1450.0	1359.6
26.28	1457.0	1359.0
26.29	1472.0	1358.4
26.3	1457.0	1357.7
26.31	1436.0	1357.1
26.32	1446.0	1356.4
26.33	1453.0	1355.8
26.34	1434.0	1355.2
26.35	1421.0	1354.5
26.36	1417.0	1353.9
26.37	1416.0	1353.2
26.38	1435.0	1352.6
26.39	1450.0	1352.0
26.4	1458.0	1351.3
26.41	1459.0	1350.7
26.42	1444.0	1350.1
26.43	1447.0	1349.4
26.44	1440.0	1348.8
26.45	1412.0	1348.2
26.46	1391.0	1347.5
26.47	1381.0	1346.9
26.48	1361.0	1346.3
26.49	1367.0	1345.7
26.5	1388.0	1345.0
26.51	1421.0	1344.4
26.52	1429.0	1343.8
26.53	1411.0	1343.1
26.54	1414.0	1342.5
26.55	1415.0	1341.9
26.56	1405.0	1341.3
26.57	1380.0	1340.6
26.58	1379.0	1340.0
26.59	1395.0	1339.4
26.6	1382.0	1338.8
26.61	1367.0	1338.2
26.62	1383.0	1337.5
26.63	1402.0	1336.9
26.64	1413.0	1336.3
26.65	1414.0	1335.7
26.66	1378.0	1335.1
26.67	1364.0	1334.5
26.68	1390.0	1333.8
26.69	1424.0	1333.2
26.7	1404.0	1332.6
26.71	1373.0	1332.0
26.72	1384.0	1331.4
26.73	1428.0	1330.8
26.74	1439.0	1330.2
26.75	1406.0	1329.6
26.76	1390.0	1328.9
26.77	1372.0	1328.3
26.78	1372.0	1327.7
26.79	1377.0	1327.1
26.8	1371.0	1326.5
26.81	1367.0	1325.9
26.82	1365.0	1325.3
26.83	1387.0	1324.7
26.84	1397.0	1324.1
26.85	1371.0	1323.5
26.86	1362.0	1322.9
26.87	1396.0	1322.3
26.88	1416.0	1321.7
26.89	1379.0	1321.1
26.9	1354.0	1320.5
26.91	1344.0	1319.9
26.92	1346.0	1319.3
26.93	1343.0	1318.7
26.94	1347.0	1318.1
26.95	1357.0	1317.5
26.96	1359.0	1316.9
26.97	1372.0	1316.3
26.98	1371.0	1315.7
26.99	1363.0	1315.1
27.0	1368.0	1314.5
27.01	1357.0	1314.0
27.02	1343.0	1313.4
27.03	1359.0	1312.8
27.04	1410.0	1312.2
27.05	1418.0	1311.6
27.06	1375.0	1311.0
27.07	1343.0	1310.4
27.08	1346.0	1309.8
27.09	1361.0	1309.3
27.1	1351.0	1308.7
27.11	1372.0	1308.1
27.12	1394.0	1307.5
27.13	1368.0	1306.9
27.14	1335.0	1306.3
27.15	1335.0	1305.8
27.16	1343.0	1305.2
27.17	1364.0	1304.6
27.18	1389.0	1304.0
27.19	1383.0	1303.5
27.2	1385.0	1302.9
27.21	1386.0	1302.3
27.22	1366.0	1301.7
27.23	1358.0	1301.2
27.24	1358.0	1300.6
27.25	1354.0	1300.0
27.26	1360.0	1299.4
27.27	1343.0	1298.9
27.28	1314.0	1298.3
27.29	1329.0	1297.7
27.3	1342.0	1297.2
27.31	1347.0	1296.6
27.32	1368.0	1296.0
27.33	1373.0	1295.5
27.34	1348.0	1294.9
27.35	1332.0	1294.3
27.36	1325.0	1293.8
27.37	1332.0	1293.2
27.38	1367.0	1292.7
27.39	1374.0	1292.1
27.4	1365.0	1291.5
27.41	1377.0	1291.0
27.42	1371.0	1290.4
27.43	1339.0	1289.9
27.44	1341.0	1289.3
27.45	1364.0	1288.8
27.46	1391.0	1288.2
27.47	1374.0	1287.6
27.48	1341.0	1287.1
27.49	1350.0	1286.5
27.5	1354.0	1286.0
27.51	1347.0	1285.4
27.52	1326.0	1284.9
27.53	1331.0	1284.3
27.54	1357.0	1283.8
27.55	1383.0	1283.2
27.56	1382.0	1282.7
27.57	1347.0	1282.1
27.58	1315.0	1281.6
27.59	1313.0	1281.1
27.6	1337.0	1280.5
27.61	1328.0	1280.0
27.62	1319.0	1279.4
27.63	1334.0	1278.9
27.64	1324.0	1278.4
27.65	1312.0	1277.8
27.66	1315.0	1277.3
27.67	1319.0	1276.7
27.68	1314.0	1276.2
27.69	1301.0	1275.7
27.7	1307.0	1275.1
27.71	1329.0	1274.6
27.72	1341.0	1274.1
27.73	1334.0	1273.5
27.74	1335.0	1273.0
27.75	1352.0	1272.5
27.76	1344.0	1271.9
27.77	1319.0	1271.4
27.78	1319.0	1270.9
27.79	1339.0	1270.4
27.8	1307.0	1269.8
27.81	1288.0	1269.3
27.82	1312.0	1268.8
27.83	1322.0	1268.3
27.84	1311.0	1267.7
27.85	1317.0	1267.2
27.86	1323.0	1266.7
27.87	1293.0	1266.2
27.88	1284.0	1265.7
27.89	1288.0	1265.1
27.9	1299.0	1264.6
27.91	1304.0	1264.1
27.92	1307.0	1263.6
27.93	1302.0	1263.1
27.94	1296.0	1262.6
27.95	1270.0	1262.0
27.96	1281.0	1261.5
27.97	1310.0	1261.0
27.98	1330.0	1260.5
27.99	1331.0	1260.0
28.0	1314.0	1259.5
28.01	1265.0	1259.0
28.02	1236.0	1258.5
28.03	1273.0	1258.0
28.04	1301.0	1257.5
28.05	1291.0	1257.0
28.06	1280.0	1256.5
28.07	1266.0	1256.0
28.08	1267.0	1255.5
28.09	1316.0	1255.0
28.1	1312.0	1254.5
28.11	1300.0	1254.0
28.12	1303.0	1253.5
28.13	1288.0	1253.0
28.14	1287.0	1252.5
28.15	1294.0	1252.0
28.16	1288.0	1251.5
28.17	1285.0	1251.0
28.18	1266.0	1250.5
28.19	1270.0	1250.0
28.2	1283.0	1249.5
28.21	1263.0	1249.0
28.22	1255.0	1248.5
28.23	1278.0	1248.0
28.24	1280.0	1247.6
28.25	1290.0	1247.1
28.26	1294.0	1246.6
28.27	1270.0	1246.1
28.28	1254.0	1245.6
28.29	1256.0	1245.1
28.3	1249.0	1244.7
28.31	1242.0	1244.2
28.32	1264.0	1243.7
28.33	1240.0	1243.2
28.34	1257.0	1242.7
28.35	1275.0	1242.3
28.36	1268.0	1241.8
28.37	1282.0	1241.3
28.38	1282.0	1240.8
28.39	1256.0	1240.3
28.4	1227.0	1239.9
28.41	1245.0	1239.4
28.42	1262.0	1238.9
28.43	1296.0	1238.5
28.44	1313.0	1238.0
28.45	1303.0	1237.5
28.46	1271.0	1237.0
28.47	1227.0	1236.6
28.48	1217.0	1236.1
28.49	1244.0	1235.6
28.5	1295.0	1235.2
28.51	1325.0	1234.7
28.52	1288.0	1234.3
28.53	1260.0	1233.8
28.54	1258.0	1233.3
28.55	1256.0	1232.9
28.56	1272.0	1232.4
28.57	1299.0	1231.9
28.58	1293.0	1231.5
28.59	1255.0	1231.0
28.6	1256.0	1230.6
28.61	1276.0	1230.1
28.62	1290.0	1229.7
28.63	1274.0	1229.2
28.64	1297.0	1228.8
28.65	1344.0	1228.3
28.66	1344.0	1227.8
28.67	1354.0	1227.4
28.68	1384.0	1226.9
28.69	1401.0	1226.5
28.7	1395.0	1226.0
28.71	1409.0	1225.6
28.72	1410.0	1225.2
28.73	1396.0	1224.7
28.74	1381.0	1224.3
28.75	1385.0	1223.8
28.76	1340.0	1223.4
28.77	1313.0	1222.9
28.78	1306.0	1222.5
28.79	1310.0	1222.0
28.8	1306.0	1221.6
28.81	1259.0	1221.2
28.82	1236.0	1220.7
28.83	1248.0	1220.3
28.84	1232.0	1219.8
28.85	1239.0	1219.4
28.86	1230.0	1219.0
28.87	1218.0	1218.5
28.88	1225.0	1218.1
28.89	1254.0	1217.7
28.9	1269.0	1217.2
28.91	1244.0	1216.8
28.92	1233.0	1216.4
28.93	1243.0	1215.9
28.94	1224.0	1215.5
28.95	1191.0	1215.1
28.96	1207.0	1214.7
28.97	1213.0	1214.2
28.98	1196.0	1213.8
28.99	1247.0	1213.4
29.0	1246.0	1213.0
29.01	1221.0	1212.5
29.02	1201.0	1212.1
29.03	1204.0	1211.7
29.04	1231.0	1211.3
29.05	1235.0	1210.8
29.06	1250.0	1210.4
29.07	1238.0	1210.0
29.08	1213.0	1209.6
29.09	1221.0	1209.2
29.1	1229.0	1208.7
29.11	1219.0	1208.3
29.12	1194.0	1207.9
29.13	1209.0	1207.5
29.14	1217.0	1207.1
29.15	1201.0	1206.7
29.16	1211.0	1206.3
29.17	1226.0	1205.8
29.18	1244.0	1205.4
29.19	1210.0	1205.0
29.2	1203.0	1204.6
29.21	1219.0	1204.2
29.22	1215.0	1203.8
29.23	1208.0	1203.4
29.24	1180.0	1203.0
29.25	1190.0	1202.6
29.26	1192.0	1202.2
29.27	1209.0	1201.8
29.28	1198.0	1201.4
29.29	1193.0	1201.0
29.3	1223.0	1200.5
29.31	1197.0	1200.1
29.32	1161.0	1199.7
29.33	1193.0	1199.3
29.34	1213.0	1198.9
29.35	1223.0	1198.5
29.36	1227.0	1198.2
29.37	1237.0	1197.8
29.38	1234.0	1197.4
29.39	1204.0	1197.0
29.4	1155.0	1196.6
29.41	1171.0	1196.2
29.42	1194.0	1195.8
29.43	1181.0	1195.4
29.44	1218.0	1195.0
29.45	1227.0	1194.6
29.46	1186.0	1194.2
29.47	1175.0	1193.8
29.48	1204.0	1193.4
29.49	1200.0	1193.0
29.5	1185.0	1192.7
29.51	1211.0	1192.3
29.52	1259.0	1191.9
29.53	1212.0	1191.5
29.54	1191.0	1191.1
29.55	1226.0	1190.7
29.56	1231.0	1190.3
29.57	1186.0	1190.0
29.58	1155.0	1189.6
29.59	1145.0	1189.2
29.6	1173.0	1188.8
29.61	1201.0	1188.4
29.62	1207.0	1188.1
29.63	1165.0	1187.7
29.64	1192.0	1187.3
29.65	1171.0	1186.9
29.66	1169.0	1186.5
29.67	1209.0	1186.2
29.68	1194.0	1185.8
29.69	1182.0	1185.4
29.7	1173.0	1185.0
29.71	1195.0	1184.7
29.72	1234.0	1184.3
29.73	1241.0	1183.9
29.74	1187.0	1183.6
29.75	1146.0	1183.2
29.76	1150.0	1182.8
29.77	1160.0	1182.4
29.78	1173.0	1182.1
29.79	1161.0	1181.7
29.8	1170.0	1181.3
29.81	1185.0	1181.0
29.82	1146.0	1180.6
29.83	1137.0	1180.2
29.84	1187.0	1179.9
29.85	1193.0	1179.5
29.86	1198.0	1179.2
29.87	1209.0	1178.8
29.88	1185.0	1178.4
29.89	1164.0	1178.1
29.9	1151.0	1177.7
29.91	1155.0	1177.3
29.92	1136.0	1177.0
29.93	1162.0	1176.6
29.94	1210.0	1176.3
29.95	1208.0	1175.9
29.96	1184.0	1175.6
29.97	1181.0	1175.2
29.98	1202.0	1174.8
29.99	1182.0	1174.5
30.0	1195.0	1174.1
30.01	1174.0	1173.8
30.02	1175.0	1173.4
30.03	1164.0	1173.1
30.04	1140.0	1172.7
30.05	1158.0	1172.4
30.06	1164.0	1172.0
30.07	1160.0	1171.7
30.08	1149.0	1171.3
30.09	1170.0	1171.0
30.1	1198.0	1170.6
30.11	1175.0	1170.3
30.12	1177.0	1169.9
30.13	1151.0	1169.6
30.14	1157.0	1169.3
30.15	1232.0	1168.9
30.16	1241.0	1168.6
30.17	1199.0	1168.2
30.18	1170.0	1167.9
30.19	1158.0	1167.5
30.2	1158.0	1167.2
30.21	1189.0	1166.9
30.22	1168.0	1166.5
30.23	1151.0	1166.2
30.24	1160.0	1165.8
30.25	1136.0	1165.5
30.26	1168.0	1165.2
30.27	1183.0	1164.8
30.28	1168.0	1164.5
30.29	1169.0	1164.2
30.3	1185.0	1163.8
30.31	1158.0	1163.5
30.32	1130.0	1163.2
30.33	1162.0	1162.8
30.34	1203.0	1162.5
30.35	1172.0	1162.2
30.36	1154.0	1161.8
30.37	1177.0	1161.5
30.38	1162.0	1161.2
30.39	1172.0	1160.8
30.4	1182.0	1160.5
30.41	1177.0	1160.2
30.42	1169.0	1159.9
30.43	1197.0	1159.5
30.44	1190.0	1159.2
30.45	1233.0	1158.9
30.46	1177.0	1158.6
30.47	1135.0	1158.2
30.48	1154.0	1157.9
30.49	1142.0	1157.6
30.5	1126.0	1157.3
30.51	1141.0	1156.9
30.52	1162.0	1156.6
30.53	1168.0	1156.3
30.54	1134.0	1156.0
30.55	1154.0	1155.7
30.56	1159.0	1155.3
30.57	1157.0	1155.0
30.58	1175.0	1154.7
30.59	1158.0	1154.4
30.6	1156.0	1154.1
30.61	1128.0	1153.8
30.62	1120.0	1153.4
30.63	1148.0	1153.1
30.64	1169.0	1152.8
30.65	1175.0	1152.5
30.66	1150.0	1152.2
30.67	1157.0	1151.9
30.68	1156.0	1151.6
30.69	1143.0	1151.2
30.7	1120.0	1150.9
30.71	1107.0	1150.6
30.72	1128.0	1150.3
30.73	1101.0	1150.0
30.74	1095.0	1149.7
30.75	1130.0	1149.4
30.76	1153.0	1149.1
30.77	1156.0	1148.8
30.78	1157.0	1148.5
30.79	1152.0	1148.2
30.8	1142.0	1147.9
30.81	1128.0	1147.6
30.82	1124.0	1147.3
30.83	1138.0	1146.9
30.84	1168.0	1146.6
30.85	1144.0	1146.3
30.86	1139.0	1146.0
30.87	1146.0	1145.7
30.88	1161.0	1145.4
30.89	1160.0	1145.1
30.9	1133.0	1144.8
30.91	1140.0	1144.5
30.92	1146.0	1144.2
30.93	1150.0	1143.9
30.94	1134.0	1143.6
30.95	1140.0	1143.4
30.96	1149.0	1143.1
30.97	1163.0	1142.8
30.98	1166.0	1142.5
30.99	1156.0	1142.2
31.0	1104.0	1141.9
31.01	1130.0	1141.6
31.02	1176.0	1141.3
31.03	1131.0	1141.0
31.04	1125.0	1140.7
31.05	1144.0	1140.4
31.06	1149.0	1140.1
31.07	1132.0	1139.8
31.08	1164.0	1139.5
31.09	1171.0	1139.3
31.1	1157.0	1139.0
31.11	1138.0	1138.7
31.12	1162.0	1138.4
31.13	1140.0	1138.1
31.14	1109.0	1137.8
31.15	1132.0	1137.5
31.16	1189.0	1137.2
31.17	1166.0	1137.0
31.18	1138.0	1136.7
31.19	1109.0	1136.4
31.2	1141.0	1136.1
31.21	1116.0	1135.8
31.22	1101.0	1135.5
31.23	1133.0	1135.3
31.24	1123.0	1135.0
31.25	1105.0	1134.7
31.26	1113.0	1134.4
31.27	1127.0	1134.1
31.28	1118.0	1133.9
31.29	1126.0	1133.6
31.3	1092.0	1133.3
31.31	1123.0	1133.0
31.32	1073.0	1132.7
31.33	1098.0	1132.5
31.34	1117.0	1132.2
31.35	1133.0	1131.9
31.36	1112.0	1131.6
31.37	1098.0	1131.4
31.38	1099.0	1131.1
31.39	1144.0	1130.8
31.4	1125.0	1130.5
31.41	1146.0	1130.3
31.42	1105.0	1130.0
31.43	1115.0	1129.7
31.44	1141.0	1129.4
31.45	1127.0	1129.2
31.46	1114.0	1128.9
31.47	1119.0	1128.6
31.48	1115.0	1128.4
31.49	1133.0	1128.1
31.5	1147.0	1127.8
31.51	1095.0	1127.6
31.52	1116.0	1127.3
31.53	1154.0	1127.0
31.54	1159.0	1126.8
31.55	1113.0	1126.5
31.56	1164.0	1126.2
31.57	1145.0	1126.0
31.58	1123.0	1125.7
31.59	1145.0	1125.4
31.6	1103.0	1125.2
31.61	1125.0	1124.9
31.62	1146.0	1124.6
31.63	1123.0	1124.4
31.64	1121.0	1124.1
31.65	1115.0	1123.9
31.66	1124.0	1123.6
31.67	1170.0	1123.3
31.68	1112.0	1123.1
31.69	1108.0	1122.8
31.7	1119.0	1122.6
31.71	1148.0	1122.3
31.72	1114.0	1122.0
31.73	1123.0	1121.8
31.74	1099.0	1121.5
31.75	1196.0	1121.3
31.76	1177.0	1121.0
31.77	1181.0	1120.7
31.78	1135.0	1120.5
31.79	1114.0	1120.2
31.8	1113.0	1120.0
31.81	1123.0	1119.7
31.82	1151.0	1119.5
31.83	1131.0	1119.2
31.84	1127.0	1119.0
31.85	1134.0	1118.7
31.86	1148.0	1118.5
31.87	1139.0	1118.2
31.88	1131.0	1118.0
31.89	1140.0	1117.7
31.9	1123.0	1117.5
31.91	1142.0	1117.2
31.92	1144.0	1117.0
31.93	1126.0	1116.7
31.94	1116.0	1116.5
31.95	1171.0	1116.2
31.96	1139.0	1116.0
31.97	1162.0	1115.7
31.98	1171.0	1115.5
31.99	1167.0	1115.2
32.0	1171.0	1115.0
32.01	1129.0	1114.7
32.02	1108.0	1114.5
32.03	1142.0	1114.2
32.04	1145.0	1114.0
32.05	1114.0	1113.7
32.06	1110.0	1113.5
32.07	1145.0	1113.3
32.08	1173.0	1113.0
32.09	1176.0	1112.8
32.1	1160.0	1112.5
32.11	1148.0	1112.3
32.12	1143.0	1112.0
32.13	1148.0	1111.8
32.14	1199.0	1111.6
32.15	1204.0	1111.3
32.16	1170.0	1111.1
32.17	1163.0	1110.8
32.18	1154.0	1110.6
32.19	1206.0	1110.4
32.2	1204.0	1110.1
32.21	1167.0	1109.9
32.22	1160.0	1109.7
32.23	1165.0	1109.4
32.24	1185.0	1109.2
32.25	1215.0	1108.9
32.26	1235.0	1108.7
32.27	1217.0	1108.5
32.28	1188.0	1108.2
32.29	1181.0	1108.0
32.3	1218.0	1107.8
32.31	1257.0	1107.5
32.32	1248.0	1107.3
32.33	1227.0	1107.1
32.34	1197.0	1106.8
32.35	1212.0	1106.6
32.36	1206.0	1106.4
32.37	1216.0	1106.1
32.38	1233.0	1105.9
32.39	1233.0	1105.7
32.4	1270.0	1105.4
32.41	1226.0	1105.2
32.42	1212.0	1105.0
32.43	1255.0	1104.8
32.44	1255.0	1104.5
32.45	1265.0	1104.3
32.46	1236.0	1104.1
32.47	1245.0	1103.8
32.48	1245.0	1103.6
32.49	1273.0	1103.4
32.5	1279.0	1103.2
32.51	1278.0	1102.9
32.52	1298.0	1102.7
32.53	1314.0	1102.5
32.54	1320.0	1102.3
32.55	1336.0	1102.0
32.56	1339.0	1101.8
32.57	1362.0	1101.6
32.58	1346.0	1101.4
32.59	1425.0	1101.1
32.6	1441.0	1100.9
32.61	1444.0	1100.7
32.62	1465.0	1100.5
32.63	1460.0	1100.2
32.64	1517.0	1100.0
32.65	1539.0	1099.8
32.66	1526.0	1099.6
32.67	1591.0	1099.4
32.68	1629.0	1099.1
32.69	1631.0	1098.9
32.7	1694.0	1098.7
32.71	1809.0	1098.5
32.72	1843.0	1098.3
32.73	1844.0	1098.0
32.74	1936.0	1097.8
32.75	2046.0	1097.6
32.76	2095.0	1097.4
32.77	2177.0	1097.2
32.78	2310.0	1096.9
32.79	2450.0	1096.7
32.8	2608.0	1096.5
32.81	2760.0	1096.3
32.82	2913.0	1096.1
32.83	2995.0	1095.9
32.84	3175.0	1095.6
32.85	3432.0	1095.4
32.86	3654.0	1095.2
32.87	3892.0	1095.0
32.88	4262.0	1094.8
32.89	4454.0	1094.6
32.9	4672.0	1094.4
32.91	4860.0	1094.1
32.92	5105.0	1093.9
32.93	5316.0	1093.7
32.94	5424.0	1093.5
32.95	5571.0	1093.3
32.96	5507.0	1093.1
32.97	5390.0	1092.9
32.98	5369.0	1092.7
32.99	5293.0	1092.5
33.0	5096.0	1092.2
33.01	4904.0	1092.0
33.02	4777.0	1091.8
33.03	4588.0	1091.6
33.04	4291.0	1091.4
33.05	4120.0	1091.2
33.06	3881.0	1091.0
33.07	3618.0	1090.8
33.08	3384.0	1090.6
33.09	3201.0	1090.4
33.1	3003.0	1090.2
33.11	2780.0	1089.9
33.12	2597.0	1089.7
33.13	2472.0	1089.5
33.14	2357.0	1089.3
33.15	2232.0	1089.1
33.16	2118.0	1088.9
33.17	1997.0	1088.7
33.18	1927.0	1088.5
33.19	1874.0	1088.3
33.2	1821.0	1088.1
33.21	1837.0	1087.9
33.22	1739.0	1087.7
33.23	1665.0	1087.5
33.24	1689.0	1087.3
33.25	1659.0	1087.1
33.26	1601.0	1086.9
33.27	1534.0	1086.7
33.28	1507.0	1086.5
33.29	1472.0	1086.3
33.3	1425.0	1086.1
33.31	1415.0	1085.9
33.32	1389.0	1085.7
33.33	1339.0	1085.5
33.34	1324.0	1085.3
33.35	1320.0	1085.1
33.36	1298.0	1084.9
33.37	1282.0	1084.7
33.38	1295.0	1084.5
33.39	1298.0	1084.3
33.4	1282.0	1084.1
33.41	1311.0	1083.9
33.42	1254.0	1083.7
33.43	1249.0	1083.5
33.44	1198.0	1083.3
33.45	1222.0	1083.1
33.46	1225.0	1082.9
33.47	1170.0	1082.7
33.48	1152.0	1082.5
33.49	1161.0	1082.3
33.5	1190.0	1082.1
33.51	1198.0	1081.9
33.52	1169.0	1081.7
33.53	1170.0	1081.5
33.54	1166.0	1081.3
33.55	1174.0	1081.1
33.56	1177.0	1080.9
33.57	1134.0	1080.7
33.58	1113.0	1080.5
33.59	1112.0	1080.3
33.6	1145.0	1080.1
33.61	1119.0	1079.9
33.62	1123.0	1079.7
33.63	1130.0	1079.5
33.64	1148.0	1079.3
33.65	1158.0	1079.1
33.66	1161.0	1079.0
33.67	1106.0	1078.8
33.68	1148.0	1078.6
33.69	1135.0	1078.4
33.7	1131.0	1078.2
33.71	1093.0	1078.0
33.72	1096.0	1077.8
33.73	1097.0	1077.6
33.74	1098.0	1077.4
33.75	1104.0	1077.2
33.76	1124.0	1077.0
33.77	1144.0	1076.8
33.78	1146.0	1076.6
33.79	1144.0	1076.5
33.8	1134.0	1076.3
33.81	1110.0	1076.1
33.82	1140.0	1075.9
33.83	1108.0	1075.7
33.84	1090.0	1075.5
33.85	1139.0	1075.3
33.86	1124.0	1075.1
33.87	1137.0	1074.9
33.88	1129.0	1074.8
33.89	1121.0	1074.6
33.9	1095.0	1074.4
33.91	1088.0	1074.2
33.92	1103.0	1074.0
33.93	1077.0	1073.8
33.94	1079.0	1073.6
33.95	1083.0	1073.4
33.96	1106.0	1073.2
33.97	1093.0	1073.1
33.98	1081.0	1072.9
33.99	1066.0	1072.7
34.0	1070.0	1072.5
34.01	1072.0	1072.3
34.02	1064.0	1072.1
34.03	1050.0	1071.9
34.04	1046.0	1071.8
34.05	1090.0	1071.6
34.06	1123.0	1071.4
34.07	1094.0	1071.2
34.08	1042.0	1071.0
34.09	1048.0	1070.8
34.1	1080.0	1070.6
34.11	1075.0	1070.5
34.12	1084.0	1070.3
34.13	1075.0	1070.1
34.14	1046.0	1069.9
34.15	1066.0	1069.7
34.16	1068.0	1069.5
34.17	1069.0	1069.4
34.18	1097.0	1069.2
34.19	1137.0	1069.0
34.2	1122.0	1068.8
34.21	1085.0	1068.6
34.22	1053.0	1068.4
34.23	1047.0	1068.3
34.24	1062.0	1068.1
34.25	1073.0	1067.9
34.26	1079.0	1067.7
34.27	1099.0	1067.5
34.28	1075.0	1067.3
34.29	1064.0	1067.2
34.3	1085.0	1067.0
34.31	1105.0	1066.8
34.32	1101.0	1066.6
34.33	1057.0	1066.4
34.34	1037.0	1066.3
34.35	1077.0	1066.1
34.36	1095.0	1065.9
34.37	1085.0	1065.7
34.38	1063.0	1065.5
34.39	1082.0	1065.4
34.4	1097.0	1065.2
34.41	1057.0	1065.0
34.42	1046.0	1064.8
34.43	1042.0	1064.6
34.44	1040.0	1064.5
34.45	1068.0	1064.3
34.46	1066.0	1064.1
34.47	1059.0	1063.9
34.48	1088.0	1063.7
34.49	1083.0	1063.6
34.5	1096.0	1063.4
34.51	1079.0	1063.2
34.52	1084.0	1063.0
34.53	1075.0	1062.8
34.54	1060.0	1062.7
34.55	1057.0	1062.5
34.56	1063.0	1062.3
34.57	1072.0	1062.1
34.58	1053.0	1062.0
34.59	1049.0	1061.8
34.6	1058.0	1061.6
34.61	1049.0	1061.4
34.62	1045.0	1061.2
34.63	1081.0	1061.1
34.64	1086.0	1060.9
34.65	1078.0	1060.7
34.66	1075.0	1060.5
34.67	1089.0	1060.4
34.68	1112.0	1060.2
34.69	1100.0	1060.0
34.7	1057.0	1059.8
34.71	1060.0	1059.7
34.72	1075.0	1059.5
34.73	1091.0	1059.3
34.74	1073.0	1059.1
34.75	1065.0	1059.0
34.76	1076.0	1058.8
34.77	1077.0	1058.6
34.78	1084.0	1058.4
34.79	1088.0	1058.3
34.8	1064.0	1058.1
34.81	1073.0	1057.9
34.82	1062.0	1057.7
34.83	1059.0	1057.6
34.84	1078.0	1057.4
34.85	1088.0	1057.2
34.86	1096.0	1057.0
34.87	1123.0	1056.9
34.88	1106.0	1056.7
34.89	1060.0	1056.5
34.9	1053.0	1056.3
34.91	1054.0	1056.2
34.92	1080.0	1056.0
34.93	1086.0	1055.8
34.94	1064.0	1055.7
34.95	1079.0	1055.5
34.96	1113.0	1055.3
34.97	1088.0	1055.1
34.98	1079.0	1055.0
34.99	1087.0	1054.8
35.0	1076.0	1054.6
35.01	1084.0	1054.4
35.02	1077.0	1054.3
35.03	1049.0	1054.1
35.04	1046.0	1053.9
35.05	1048.0	1053.8
35.06	1062.0	1053.6
35.07	1091.0	1053.4
35.08	1109.0	1053.3
35.09	1089.0	1053.1
35.1	1091.0	1052.9
35.11	1093.0	1052.7
35.12	1086.0	1052.6
35.13	1107.0	1052.4
35.14	1109.0	1052.2
35.15	1108.0	1052.1
35.16	1098.0	1051.9
35.17	1104.0	1051.7
35.18	1111.0	1051.6
35.19	1103.0	1051.4
35.2	1089.0	1051.2
35.21	1079.0	1051.0
35.22	1093.0	1050.9
35.23	1103.0	1050.7
35.24	1089.0	1050.5
35.25	1103.0	1050.4
35.26	1117.0	1050.2
35.27	1108.0	1050.0
35.28	1110.0	1049.9
35.29	1084.0	1049.7
35.3	1049.0	1049.5
35.31	1044.0	1049.4
35.32	1084.0	1049.2
35.33	1117.0	1049.0
35.34	1113.0	1048.9
35.35	1093.0	1048.7
35.36	1105.0	1048.5
35.37	1123.0	1048.4
35.38	1138.0	1048.2
35.39	1122.0	1048.0
35.4	1121.0	1047.9
35.41	1160.0	1047.7
35.42	1171.0	1047.5
35.43	1151.0	1047.4
35.44	1150.0	1047.2
35.45	1177.0	1047.0
35.46	1185.0	1046.9
35.47	1201.0	1046.7
35.48	1248.0	1046.5
35.49	1277.0	1046.4
35.5	1321.0	1046.2
35.51	1352.0	1046.1
35.52	1342.0	1045.9
35.53	1360.0	1045.7
35.54	1398.0	1045.6
35.55	1411.0	1045.4
35.56	1435.0	1045.2
35.57	1478.0	1045.1
35.58	1485.0	1044.9
35.59	1478.0	1044.7
35.6	1463.0	1044.6
35.61	1457.0	1044.4
35.62	1454.0	1044.3
35.63	1458.0	1044.1
35.64	1459.0	1043.9
35.65	1423.0	1043.8
35.66	1397.0	1043.6
35.67	1405.0	1043.4
35.68	1410.0	1043.3
35.69	1402.0	1043.1
35.7	1384.0	1043.0
35.71	1351.0	1042.8
35.72	1335.0	1042.6
35.73	1294.0	1042.5
35.74	1255.0	1042.3
35.75	1218.0	1042.2
35.76	1194.0	1042.0
35.77	1203.0	1041.8
35.78	1220.0	1041.7
35.79	1223.0	1041.5
35.8	1205.0	1041.4
35.81	1204.0	1041.2
35.82	1188.0	1041.0
35.83	1165.0	1040.9
35.84	1162.0	1040.7
35.85	1151.0	1040.6
35.86	1137.0	1040.4
35.87	1142.0	1040.2
35.88	1156.0	1040.1
35.89	1158.0	1039.9
35.9	1149.0	1039.8
35.91	1142.0	1039.6
35.92	1156.0	1039.4
35.93	1159.0	1039.3
35.94	1131.0	1039.1
35.95	1106.0	1039.0
35.96	1107.0	1038.8
35.97	1123.0	1038.7
35.98	1123.0	1038.5
35.99	1114.0	1038.3
36.0	1106.0	1038.2
36.01	1090.0	1038.0
36.02	1083.0	1037.9
36.03	1107.0	1037.7
36.04	1121.0	1037.6
36.05	1110.0	1037.4
36.06	1128.0	1037.3
36.07	1143.0	1037.1
36.08	1138.0	1036.9
36.09	1139.0	1036.8
36.1	1168.0	1036.6
36.11	1172.0	1036.5
36.12	1129.0	1036.3
36.13	1124.0	1036.2
36.14	1117.0	1036.0
36.15	1088.0	1035.9
36.16	1068.0	1035.7
36.17	1084.0	1035.5
36.18	1112.0	1035.4
36.19	1106.0	1035.2
36.2	1094.0	1035.1
36.21	1100.0	1034.9
36.22	1092.0	1034.8
36.23	1087.0	1034.6
36.24	1105.0	1034.5
36.25	1125.0	1034.3
36.26	1134.0	1034.2
36.27	1110.0	1034.0
36.28	1086.0	1033.9
36.29	1104.0	1033.7
36.3	1122.0	1033.6
36.31	1124.0	1033.4
36.32	1124.0	1033.2
36.33	1120.0	1033.1
36.34	1096.0	1032.9
36.35	1082.0	1032.8
36.36	1103.0	1032.6
36.37	1111.0	1032.5
36.38	1098.0	1032.3
36.39	1063.0	1032.2
36.4	1069.0	1032.0
36.41	1118.0	1031.9
36.42	1132.0	1031.7
36.43	1128.0	1031.6
36.44	1104.0	1031.4
36.45	1108.0	1031.3
36.46	1134.0	1031.1
36.47	1119.0	1031.0
36.48	1101.0	1030.8
36.49	1102.0	1030.7
36.5	1096.0	1030.5
36.51	1086.0	1030.4
36.52	1080.0	1030.2
36.53	1096.0	1030.1
36.54	1105.0	1029.9
36.55	1108.0	1029.8
36.56	1114.0	1029.6
36.57	1093.0	1029.5
36.58	1116.0	1029.3
36.59	1130.0	1029.2
36.6	1100.0	1029.1
36.61	1107.0	1028.9
36.62	1115.0	1028.8
36.63	1109.0	1028.6
36.64	1134.0	1028.5
36.65	1172.0	1028.3
36.66	1150.0	1028.2
36.67	1125.0	1028.0
36.68	1134.0	1027.9
36.69	1127.0	1027.7
36.7	1144.0	1027.6
36.71	1171.0	1027.4
36.72	1177.0	1027.3
36.73	1172.0	1027.1
36.74	1155.0	1027.0
36.75	1133.0	1026.9
36.76	1143.0	1026.7
36.77	1173.0	1026.6
36.78	1184.0	1026.4
36.79	1219.0	1026.3
36.8	1266.0	1026.1
36.81	1296.0	1026.0
36.82	1308.0	1025.8
36.83	1325.0	1025.7
36.84	1376.0	1025.6
36.85	1391.0	1025.4
36.86	1414.0	1025.3
36.87	1444.0	1025.1
36.88	1445.0	1025.0
36.89	1457.0	1024.8
36.9	1476.0	1024.7
36.91	1464.0	1024.6
36.92	1467.0	1024.4
36.93	1492.0	1024.3
36.94	1494.0	1024.1
36.95	1488.0	1024.0
36.96	1445.0	1023.8
36.97	1393.0	1023.7
36.98	1407.0	1023.6
36.99	1429.0	1023.4
37.0	1421.0	1023.3
37.01	1386.0	1023.1
37.02	1357.0	1023.0
37.03	1380.0	1022.9
37.04	1369.0	1022.7
37.05	1320.0	1022.6
37.06	1298.0	1022.4
37.07	1273.0	1022.3
37.08	1228.0	1022.1
37.09	1222.0	1022.0
37.1	1244.0	1021.9
37.11	1230.0	1021.7
37.12	1227.0	1021.6
37.13	1250.0	1021.4
37.14	1221.0	1021.3
37.15	1201.0	1021.2
37.16	1231.0	1021.0
37.17	1227.0	1020.9
37.18	1172.0	1020.8
37.19	1150.0	1020.6
37.2	1206.0	1020.5
37.21	1235.0	1020.3
37.22	1225.0	1020.2
37.23	1204.0	1020.1
37.24	1175.0	1019.9
37.25	1193.0	1019.8
37.26	1205.0	1019.7
37.27	1192.0	1019.5
37.28	1187.0	1019.4
37.29	1210.0	1019.2
37.3	1215.0	1019.1
37.31	1203.0	1019.0
37.32	1230.0	1018.8
37.33	1238.0	1018.7
37.34	1207.0	1018.6
37.35	1230.0	1018.4
37.36	1268.0	1018.3
37.37	1242.0	1018.2
37.38	1221.0	1018.0
37.39	1245.0	1017.9
37.4	1270.0	1017.7
37.41	1298.0	1017.6
37.42	1303.0	1017.5
37.43	1275.0	1017.3
37.44	1259.0	1017.2
37.45	1267.0	1017.1
37.46	1292.0	1016.9
37.47	1324.0	1016.8
37.48	1351.0	1016.7
37.49	1353.0	1016.5
37.5	1375.0	1016.4
37.51	1406.0	1016.3
37.52	1386.0	1016.1
37.53	1388.0	1016.0
37.54	1429.0	1015.9
37.55	1442.0	1015.7
37.56	1447.0	1015.6
37.57	1453.0	1015.5
37.58	1473.0	1015.3
37.59	1514.0	1015.2
37.6	1540.0	1015.1
37.61	1483.0	1014.9
37.62	1447.0	1014.8
37.63	1457.0	1014.7
37.64	1454.0	1014.6
37.65	1448.0	1014.4
37.66	1446.0	1014.3
37.67	1449.0	1014.2
37.68	1471.0	1014.0
37.69	1455.0	1013.9
37.7	1410.0	1013.8
37.71	1385.0	1013.6
37.72	1376.0	1013.5
37.73	1355.0	1013.4
37.74	1361.0	1013.3
37.75	1411.0	1013.1
37.76	1413.0	1013.0
37.77	1389.0	1012.9
37.78	1399.0	1012.7
37.79	1418.0	1012.6
37.8	1422.0	1012.5
37.81	1405.0	1012.4
37.82	1401.0	1012.2
37.83	1394.0	1012.1
37.84	1417.0	1012.0
37.85	1430.0	1011.8
37.86	1424.0	1011.7
37.87	1421.0	1011.6
37.88	1424.0	1011.5
37.89	1393.0	1011.3
37.9	1434.0	1011.2
37.91	1495.0	1011.1
37.92	1467.0	1011.0
37.93	1431.0	1010.8
37.94	1428.0	1010.7
37.95	1420.0	1010.6
37.96	1431.0	1010.4
37.97	1445.0	1010.3
37.98	1455.0	1010.2
37.99	1439.0	1010.1
38.0	1422.0	1009.9
38.01	1415.0	1009.8
38.02	1435.0	1009.7
38.03	1467.0	1009.6
38.04	1456.0	1009.4
38.05	1415.0	1009.3
38.06	1438.0	1009.2
38.07	1500.0	1009.1
38.08	1543.0	1008.9
38.09	1559.0	1008.8
38.1	1579.0	1008.7
38.11	1587.0	1008.6
38.12	1579.0	1008.5
38.13	1680.0	1008.3
38.14	1773.0	1008.2
38.15	1789.0	1008.1
38.16	1792.0	1008.0
38.17	1867.0	1007.8
38.18	1941.0	1007.7
38.19	1979.0	1007.6
38.2	2030.0	1007.5
38.21	2076.0	1007.4
38.22	2112.0	1007.2
38.23	2134.0	1007.1
38.24	2170.0	1007.0
38.25	2148.0	1006.9
38.26	2129.0	1006.7
38.27	2091.0	1006.6
38.28	1988.0	1006.5
38.29	1952.0	1006.4
38.3	1951.0	1006.3
38.31	1947.0	1006.1
38.32	1895.0	1006.0
38.33	1825.0	1005.9
38.34	1733.0	1005.8
38.35	1680.0	1005.7
38.36	1672.0	1005.5
38.37	1634.0	1005.4
38.38	1580.0	1005.3
38.39	1510.0	1005.2
38.4	1446.0	1005.1
38.41	1416.0	1005.0
38.42	1408.0	1004.8
38.43	1375.0	1004.7
38.44	1327.0	1004.6
38.45	1300.0	1004.5
38.46	1270.0	1004.4
38.47	1275.0	1004.2
38.48	1267.0	1004.1
38.49	1283.0	1004.0
38.5	1321.0	1003.9
38.51	1329.0	1003.8
38.52	1255.0	1003.7
38.53	1250.0	1003.5
38.54	1242.0	1003.4
38.55	1251.0	1003.3
38.56	1268.0	1003.2
38.57	1258.0	1003.1
38.58	1193.0	1003.0
38.59	1182.0	1002.9
38.6	1192.0	1002.7
38.61	1208.0	1002.6
38.62	1230.0	1002.5
38.63	1181.0	1002.4
38.64	1137.0	1002.3
38.65	1140.0	1002.2
38.66	1159.0	1002.1
38.67	1191.0	1001.9
38.68	1204.0	1001.8
38.69	1220.0	1001.7
38.7	1198.0	1001.6
38.71	1170.0	1001.5
38.72	1155.0	1001.4
38.73	1143.0	1001.3
38.74	1174.0	1001.1
38.75	1179.0	1001.0
38.76	1181.0	1000.9
38.77	1173.0	1000.8
38.78	1152.0	1000.7
38.79	1126.0	1000.6
38.8	1107.0	1000.5
38.81	1161.0	1000.4
38.82	1172.0	1000.2
38.83	1151.0	1000.1
38.84	1112.0	1000.0
38.85	1118.0	999.9
38.86	1137.0	999.8
38.87	1137.0	999.7
38.88	1126.0	999.6
38.89	1127.0	999.5
38.9	1137.0	999.4
38.91	1135.0	999.3
38.92	1173.0	999.1
38.93	1179.0	999.0
38.94	1138.0	998.9
38.95	1133.0	998.8
38.96	1133.0	998.7
38.97	1145.0	998.6
38.98	1148.0	998.5
38.99	1156.0	998.4
39.0	1139.0	998.3
39.01	1161.0	998.2
39.02	1191.0	998.1
39.03	1202.0	997.9
39.04	1204.0	997.8
39.05	1198.0	997.7
39.06	1188.0	997.6
39.07	1209.0	997.5
39.08	1260.0	997.4
39.09	1270.0	997.3
39.1	1261.0	997.2
39.11	1258.0	997.1
39.12	1282.0	997.0
39.13	1307.0	996.9
39.14	1296.0	996.8
39.15	1309.0	996.7
39.16	1318.0	996.6
39.17	1315.0	996.5
39.18	1338.0	996.4
39.19	1411.0	996.2
39.2	1470.0	996.1
39.21	1490.0	996.0
39.22	1534.0	995.9
39.23	1608.0	995.8
39.24	1660.0	995.7
39.25	1717.0	995.6
39.26	1760.0	995.5
39.27	1818.0	995.4
39.28	1916.0	995.3
39.29	1988.0	995.2
39.3	2068.0	995.1
39.31	2171.0	995.0
39.32	2178.0	994.9
39.33	2160.0	994.8
39.34	2224.0	994.7
39.35	2261.0	994.6
39.36	2255.0	994.5
39.37	2206.0	994.4
39.38	2215.0	994.3
39.39	2137.0	994.2
39.4	2130.0	994.1
39.41	2010.0	994.0
39.42	1946.0	993.9
39.43	1926.0	993.8
39.44	1909.0	993.7
39.45	1840.0	993.6
39.46	1771.0	993.5
39.47	1738.0	993.4
39.48	1653.0	993.3
39.49	1586.0	993.2
39.5	1566.0	993.1
39.51	1488.0	993.0
39.52	1442.0	992.9
39.53	1443.0	992.8
39.54	1392.0	992.7
39.55	1346.0	992.6
39.56	1322.0	992.5
39.57	1282.0	992.4
39.58	1299.0	992.3
39.59	1301.0	992.2
39.6	1254.0	992.1
39.61	1226.0	992.0
39.62	1237.0	991.9
39.63	1207.0	991.8
39.64	1195.0	991.7
39.65	1155.0	991.6
39.66	1140.0	991.5
39.67	1167.0	991.4
39.68	1161.0	991.3
39.69	1129.0	991.2
39.7	1112.0	991.1
39.71	1104.0	991.0
39.72	1101.0	990.9
39.73	1085.0	990.8
39.74	1053.0	990.7
39.75	1085.0	990.7
39.76	1118.0	990.6
39.77	1113.0	990.5
39.78	1087.0	990.4
39.79	1100.0	990.3
39.8	1081.0	990.2
39.81	1130.0	990.1
39.82	1103.0	990.0
39.83	1104.0	989.9
39.84	1095.0	989.8
39.85	1085.0	989.7
39.86	1075.0	989.6
39.87	1081.0	989.5
39.88	1077.0	989.4
39.89	1073.0	989.3
39.9	1058.0	989.2
39.91	1051.0	989.2
39.92	1033.0	989.1
39.93	1056.0	989.0
39.94	1064.0	988.9
39.95	1052.0	988.8
39.96	1079.0	988.7
39.97	1097.0	988.6
39.98	1049.0	988.5
39.99	1022.0	988.4
40.0	1018.0	988.3
40.01	1049.0	988.2
40.02	1078.0	988.1
40.03	1064.0	988.1
40.04	1048.0	988.0
40.05	1056.0	987.9
40.06	1057.0	987.8
40.07	1066.0	987.7
40.08	1056.0	987.6
40.09	1058.0	987.5
40.1	1064.0	987.4
40.11	1059.0	987.3
40.12	1060.0	987.3
40.13	1085.0	987.2
40.14	1034.0	987.1
40.15	1030.0	987.0
40.16	1074.0	986.9
40.17	1035.0	986.8
40.18	1039.0	986.7
40.19	1062.0	986.6
40.2	1029.0	986.6
40.21	1071.0	986.5
40.22	1100.0	986.4
40.23	1084.0	986.3
40.24	1074.0	986.2
40.25	1029.0	986.1
40.26	1041.0	986.0
40.27	1054.0	986.0
40.28	1031.0	985.9
40.29	1044.0	985.8
40.3	1032.0	985.7
40.31	1033.0	985.6
40.32	1057.0	985.5
40.33	1050.0	985.4
40.34	1028.0	985.4
40.35	1058.0	985.3
40.36	1057.0	985.2
40.37	1025.0	985.1
40.38	1009.0	985.0
40.39	982.0	984.9
40.4	1036.0	984.9
40.41	1037.0	984.8
40.42	1057.0	984.7
40.43	1073.0	984.6
40.44	1068.0	984.5
40.45	1055.0	984.4
40.46	1074.0	984.4
40.47	1083.0	984.3
40.48	1054.0	984.2
40.49	1096.0	984.1
40.5	1101.0	984.0
40.51	1047.0	983.9
40.52	1086.0	983.9
40.53	1092.0	983.8
40.54	1068.0	983.7
40.55	1075.0	983.6
40.56	1102.0	983.5
40.57	1092.0	983.5
40.58	1104.0	983.4
40.59	1128.0	983.3
40.6	1173.0	983.2
40.61	1146.0	983.1
40.62	1143.0	983.1
40.63	1112.0	983.0
40.64	1133.0	982.9
40.65	1188.0	982.8
40.66	1180.0	982.7
40.67	1149.0	982.7
40.68	1127.0	982.6
40.69	1185.0	982.5
40.7	1205.0	982.4
40.71	1239.0	982.4
40.72	1187.0	982.3
40.73	1178.0	982.2
40.74	1184.0	982.1
40.75	1224.0	982.1
40.76	1219.0	982.0
40.77	1263.0	981.9
40.78	1276.0	981.8
40.79	1276.0	981.7
40.8	1256.0	981.7
40.81	1266.0	981.6
40.82	1279.0	981.5
40.83	1296.0	981.4
40.84	1286.0	981.4
40.85	1305.0	981.3
40.86	1257.0	981.2
40.87	1277.0	981.1
40.88	1259.0	981.1
40.89	1219.0	981.0
40.9	1252.0	980.9
40.91	1222.0	980.8
40.92	1230.0	980.8
40.93	1231.0	980.7
40.94	1177.0	980.6
40.95	1195.0	980.6
40.96	1200.0	980.5
40.97	1199.0	980.4
40.98	1166.0	980.3
40.99	1187.0	980.3
41.0	1153.0	980.2
41.01	1141.0	980.1
41.02	1150.0	980.0
41.03	1153.0	980.0
41.04	1103.0	979.9
41.05	1105.0	979.8
41.06	1136.0	979.8
41.07	1092.0	979.7
41.08	1138.0	979.6
41.09	1130.0	979.5
41.1	1088.0	979.5
41.11	1096.0	979.4
41.12	1110.0	979.3
41.13	1051.0	979.3
41.14	1045.0	979.2
41.15	1063.0	979.1
41.16	1067.0	979.1
41.17	1086.0	979.0
41.18	1068.0	978.9
41.19	1051.0	978.9
41.2	1077.0	978.8
41.21	1027.0	978.7
41.22	1014.0	978.6
41.23	1037.0	978.6
41.24	1009.0	978.5
41.25	1034.0	978.4
41.26	1013.0	978.4
41.27	1053.0	978.3
41.28	1068.0	978.2
41.29	1052.0	978.2
41.3	1037.0	978.1
41.31	1055.0	978.0
41.32	1066.0	978.0
41.33	1035.0	977.9
41.34	1037.0	977.8
41.35	995.0	977.8
41.36	1023.0	977.7
41.37	1058.0	977.6
41.38	1055.0	977.6
41.39	1055.0	977.5
41.4	1056.0	977.5
41.41	1046.0	977.4
41.42	1054.0	977.3
41.43	1052.0	977.3
41.44	1027.0	977.2
41.45	1002.0	977.1
41.46	985.0	977.1
41.47	1019.0	977.0
41.48	1028.0	976.9
41.49	1018.0	976.9
41.5	1033.0	976.8
41.51	1050.0	976.8
41.52	1060.0	976.7
41.53	1054.0	976.6
41.54	1048.0	976.6
41.55	1046.0	976.5
41.56	1038.0	976.4
41.57	1027.0	976.4
41.58	1065.0	976.3
41.59	1039.0	976.3
41.6	1026.0	976.2
41.61	1052.0	976.1
41.62	1037.0	976.1
41.63	1002.0	976.0
41.64	1016.0	976.0
41.65	1015.0	975.9
41.66	997.0	975.8
41.67	1027.0	975.8
41.68	1021.0	975.7
41.69	1021.0	975.7
41.7	1011.0	975.6
41.71	1004.0	975.5
41.72	1003.0	975.5
41.73	1003.0	975.4
41.74	1040.0	975.4
41.75	1015.0	975.3
41.76	994.0	975.2
41.77	1002.0	975.2
41.78	1004.0	975.1
41.79	1048.0	975.1
41.8	1057.0	975.0
41.81	1030.0	975.0
41.82	1001.0	974.9
41.83	964.0	974.8
41.84	982.0	974.8
41.85	984.0	974.7
41.86	977.0	974.7
41.87	1005.0	974.6
41.88	1006.0	974.6
41.89	989.0	974.5
41.9	963.0	974.5
41.91	973.0	974.4
41.92	977.0	974.3
41.93	984.0	974.3
41.94	1028.0	974.2
41.95	989.0	974.2
41.96	979.0	974.1
41.97	1018.0	974.1
41.98	1037.0	974.0
41.99	1022.0	974.0
42.0	1015.0	973.9
42.01	995.0	973.9
42.02	1001.0	973.8
42.03	995.0	973.8
42.04	1009.0	973.7
42.05	1053.0	973.7
42.06	1044.0	973.6
42.07	1020.0	973.5
42.08	1061.0	973.5
42.09	999.0	973.4
42.1	970.0	973.4
42.11	1000.0	973.3
42.12	1006.0	973.3
42.13	1033.0	973.2
42.14	1004.0	973.2
42.15	1035.0	973.1
42.16	986.0	973.1
42.17	1014.0	973.0
42.18	1033.0	973.0
42.19	1018.0	972.9
42.2	984.0	972.9
42.21	1011.0	972.8
42.22	1027.0	972.8
42.23	1026.0	972.7
42.24	1007.0	972.7
42.25	1052.0	972.6
42.26	1045.0	972.6
42.27	1040.0	972.5
42.28	999.0	972.5
42.29	1011.0	972.4
42.3	1029.0	972.4
42.31	1051.0	972.4
42.32	1055.0	972.3
42.33	1094.0	972.3
42.34	1022.0	972.2
42.35	1088.0	972.2
42.36	1045.0	972.1
42.37	1068.0	972.1
42.38	1041.0	972.0
42.39	1044.0	972.0
42.4	1050.0	971.9
42.41	1026.0	971.9
42.42	1069.0	971.8
42.43	1089.0	971.8
42.44	1113.0	971.7
42.45	1111.0	971.7
42.46	1137.0	971.7
42.47	1158.0	971.6
42.48	1166.0	971.6
42.49	1149.0	971.5
42.5	1120.0	971.5
42.51	1158.0	971.4
42.52	1116.0	971.4
42.53	1137.0	971.3
42.54	1157.0	971.3
42.55	1143.0	971.2
42.56	1096.0	971.2
42.57	1083.0	971.2
42.58	1098.0	971.1
42.59	1098.0	971.1
42.6	1153.0	971.0
42.61	1106.0	971.0
42.62	1092.0	970.9
42.63	1074.0	970.9
42.64	1095.0	970.9
42.65	1117.0	970.8
42.66	1058.0	970.8
42.67	1037.0	970.7
42.68	1047.0	970.7
42.69	1049.0	970.6
42.7	1058.0	970.6
42.71	1068.0	970.6
42.72	1076.0	970.5
42.73	1054.0	970.5
42.74	1038.0	970.4
42.75	1022.0	970.4
42.76	1078.0	970.4
42.77	1055.0	970.3
42.78	1014.0	970.3
42.79	1032.0	970.2
42.8	1065.0	970.2
42.81	1016.0	970.1
42.82	1043.0	970.1
42.83	1067.0	970.1
42.84	1068.0	970.0
42.85	1061.0	970.0
42.86	1062.0	969.9
42.87	1073.0	969.9
42.88	1026.0	969.9
42.89	977.0	969.8
42.9	1036.0	969.8
42.91	1053.0	969.7
42.92	1053.0	969.7
42.93	1049.0	969.7
42.94	1088.0	969.6
42.95	1038.0	969.6
42.96	1053.0	969.5
42.97	1053.0	969.5
42.98	1032.0	969.5
42.99	1026.0	969.4
43.0	1042.0	969.4
43.01	1039.0	969.4
43.02	1025.0	969.3
43.03	1047.0	969.3
43.04	1014.0	969.2
43.05	1011.0	969.2
43.06	1028.0	969.2
43.07	1012.0	969.1
43.08	1000.0	969.1
43.09	1010.0	969.0
43.1	1060.0	969.0
43.11	1052.0	969.0
43.12	1050.0	968.9
43.13	993.0	968.9
43.14	990.0	968.9
43.15	1005.0	968.8
43.16	1015.0	968.8
43.17	1023.0	968.7
43.18	1004.0	968.7
43.19	1028.0	968.7
43.2	1014.0	968.6
43.21	1019.0	968.6
43.22	1034.0	968.6
43.23	1008.0	968.5
43.24	1049.0	968.5
43.25	1052.0	968.5
43.26	1001.0	968.4
43.27	1011.0	968.4
43.28	993.0	968.3
43.29	963.0	968.3
43.3	978.0	968.3
43.31	1038.0	968.2
43.32	1008.0	968.2
43.33	1024.0	968.2
43.34	991.0	968.1
43.35	990.0	968.1
43.36	1000.0	968.1
43.37	1010.0	968.0
43.38	1000.0	968.0
43.39	971.0	967.9
43.4	996.0	967.9
43.41	1009.0	967.9
43.42	1015.0	967.8
43.43	998.0	967.8
43.44	984.0	967.8
43.45	986.0	967.7
43.46	994.0	967.7
43.47	1042.0	967.7
43.48	1026.0	967.6
43.49	995.0	967.6
43.5	971.0	967.6
43.51	949.0	967.5
43.52	992.0	967.5
43.53	1038.0	967.5
43.54	1024.0	967.4
43.55	998.0	967.4
43.56	989.0	967.4
43.57	973.0	967.3
43.58	1020.0	967.3
43.59	1014.0	967.3
43.6	1045.0	967.2
43.61	982.0	967.2
43.62	1006.0	967.2
43.63	996.0	967.1
43.64	993.0	967.1
43.65	969.0	967.1
43.66	997.0	967.0
43.67	994.0	967.0
43.68	985.0	967.0
43.69	961.0	966.9
43.7	1003.0	966.9
43.71	996.0	966.9
43.72	978.0	966.8
43.73	982.0	966.8
43.74	998.0	966.8
43.75	1007.0	966.7
43.76	988.0	966.7
43.77	982.0	966.7
43.78	979.0	966.6
43.79	1004.0	966.6
43.8	1021.0	966.6
43.81	992.0	966.5
43.82	971.0	966.5
43.83	976.0	966.5
43.84	995.0	966.4
43.85	1032.0	966.4
43.86	1018.0	966.4
43.87	1008.0	966.3
43.88	993.0	966.3
43.89	962.0	966.3
43.9	984.0	966.2
43.91	1013.0	966.2
43.92	1032.0	966.2
43.93	1009.0	966.1
43.94	1004.0	966.1
43.95	1024.0	966.1
43.96	1012.0	966.0
43.97	999.0	966.0
43.98	971.0	966.0
43.99	969.0	965.9
44.0	1004.0	965.9
44.01	1039.0	965.9
44.02	1028.0	965.8
44.03	1026.0	965.8
44.04	1040.0	965.8
44.05	989.0	965.7
44.06	1001.0	965.7
44.07	1017.0	965.7
44.08	991.0	965.6
44.09	985.0	965.6
44.1	1014.0	965.6
44.11	1036.0	965.5
44.12	1033.0	965.5
44.13	1009.0	965.5
44.14	997.0	965.4
44.15	978.0	965.4
44.16	1006.0	965.4
44.17	1029.0	965.3
44.18	1050.0	965.3
44.19	1048.0	965.3
44.2	1029.0	965.2
44.21	994.0	965.2
44.22	1023.0	965.2
44.23	1063.0	965.2
44.24	1008.0	965.1
44.25	1024.0	965.1
44.26	1017.0	965.1
44.27	1006.0	965.0
44.28	979.0	965.0
44.29	998.0	965.0
44.3	989.0	964.9
44.31	1027.0	964.9
44.32	1059.0	964.9
44.33	1079.0	964.8
44.34	1056.0	964.8
44.35	1025.0	964.8
44.36	1013.0	964.7
44.37	1012.0	964.7
44.38	1041.0	964.7
44.39	1051.0	964.6
44.4	1046.0	964.6
44.41	1048.0	964.6
44.42	1017.0	964.5
44.43	1002.0	964.5
44.44	1020.0	964.5
44.45	1026.0	964.4
44.46	1036.0	964.4
44.47	1021.0	964.4
44.48	1048.0	964.3
44.49	1062.0	964.3
44.5	1034.0	964.3
44.51	1021.0	964.2
44.52	1061.0	964.2
44.53	1066.0	964.2
44.54	1048.0	964.2
44.55	1040.0	964.1
44.56	1030.0	964.1
44.57	1054.0	964.1
44.58	1067.0	964.0
44.59	1084.0	964.0
44.6	1081.0	964.0
44.61	1086.0	963.9
44.62	1101.0	963.9
44.63	1113.0	963.9
44.64	1042.0	963.8
44.65	1034.0	963.8
44.66	1052.0	963.8
44.67	1074.0	963.7
44.68	1100.0	963.7
44.69	1126.0	963.7
44.7	1106.0	963.6
44.71	1082.0	963.6
44.72	1138.0	963.6
44.73	1158.0	963.5
44.74	1154.0	963.5
44.75	1159.0	963.5
44.76	1187.0	963.4
44.77	1184.0	963.4
44.78	1149.0	963.4
44.79	1138.0	963.3
44.8	1140.0	963.3
44.81	1181.0	963.3
44.82	1238.0	963.2
44.83	1240.0	963.2
44.84	1219.0	963.2
44.85	1222.0	963.1
44.86	1264.0	963.1
44.87	1291.0	963.1
44.88	1256.0	963.0
44.89	1259.0	963.0
44.9	1339.0	963.0
44.91	1389.0	962.9
44.92	1395.0	962.9
44.93	1407.0	962.9
44.94	1410.0	962.8
44.95	1420.0	962.8
44.96	1480.0	962.8
44.97	1528.0	962.7
44.98	1560.0	962.7
44.99	1657.0	962.7
45.0	1742.0	962.6
45.01	1788.0	962.6
45.02	1915.0	962.5
45.03	1985.0	962.5
45.04	2078.0	962.5
45.05	2189.0	962.4
45.06	2336.0	962.4
45.07	2537.0	962.4
45.08	2697.0	962.3
45.09	2799.0	962.3
45.1	2870.0	962.3
45.11	2959.0	962.2
45.12	3075.0	962.2
45.13	3164.0	962.2
45.14	3158.0	962.1
45.15	3153.0	962.1
45.16	3073.0	962.1
45.17	2952.0	962.0
45.18	2898.0	962.0
45.19	2873.0	961.9
45.2	2843.0	961.9
45.21	2744.0	961.9
45.22	2615.0	961.8
45.23	2567.0	961.8
45.24	2538.0	961.8
45.25	2475.0	961.7
45.26	2382.0	961.7
45.27	2266.0	961.7
45.28	2166.0	961.6
45.29	2081.0	961.6
45.3	1960.0	961.6
45.31	1846.0	961.5
45.32	1790.0	961.5
45.33	1722.0	961.4
45.34	1624.0	961.4
45.35	1558.0	961.4
45.36	1503.0	961.3
45.37	1450.0	961.3
45.38	1403.0	961.3
45.39	1351.0	961.2
45.4	1306.0	961.2
45.41	1304.0	961.1
45.42	1280.0	961.1
45.43	1217.0	961.1
45.44	1196.0	961.0
45.45	1188.0	961.0
45.46	1173.0	961.0
45.47	1161.0	960.9
45.48	1169.0	960.9
45.49	1154.0	960.8
45.5	1153.0	960.8
45.51	1134.0	960.8
45.52	1098.0	960.7
45.53	1113.0	960.7
45.54	1070.0	960.6
45.55	1059.0	960.6
45.56	1095.0	960.6
45.57	1113.0	960.5
45.58	1103.0	960.5
45.59	1057.0	960.4
45.6	1035.0	960.4
45.61	1021.0	960.4
45.62	1023.0	960.3
45.63	1061.0	960.3
45.64	1075.0	960.3
45.65	1069.0	960.2
45.66	1037.0	960.2
45.67	1033.0	960.1
45.68	1048.0	960.1
45.69	1035.0	960.0
45.7	997.0	960.0
45.71	1000.0	960.0
45.72	998.0	959.9
45.73	1028.0	959.9
45.74	1030.0	959.8
45.75	1027.0	959.8
45.76	1003.0	959.8
45.77	1000.0	959.7
45.78	1003.0	959.7
45.79	1004.0	959.6
45.8	1027.0	959.6
45.81	1024.0	959.6
45.82	1015.0	959.5
45.83	1011.0	959.5
45.84	1002.0	959.4
45.85	1014.0	959.4
45.86	1018.0	959.3
45.87	1029.0	959.3
45.88	1018.0	959.3
45.89	997.0	959.2
45.9	992.0	959.2
45.91	1004.0	959.1
45.92	991.0	959.1
45.93	963.0	959.0
45.94	946.0	959.0
45.95	963.0	959.0
45.96	988.0	958.9
45.97	1004.0	958.9
45.98	1016.0	958.8
45.99	1001.0	958.8
46.0	1027.0	958.7
46.01	1018.0	958.7
46.02	968.0	958.6
46.03	974.0	958.6
46.04	1014.0	958.6
46.05	1023.0	958.5
46.06	1008.0	958.5
46.07	992.0	958.4
46.08	981.0	958.4
46.09	977.0	958.3
46.1	996.0	958.3
46.11	979.0	958.2
46.12	990.0	958.2
46.13	1026.0	958.1
46.14	1026.0	958.1
46.15	987.0	958.0
46.16	1012.0	958.0
46.17	1010.0	958.0
46.18	986.0	957.9
46.19	982.0	957.9
46.2	982.0	957.8
46.21	964.0	957.8
46.22	965.0	957.7
46.23	1005.0	957.7
46.24	1008.0	957.6
46.25	1014.0	957.6
46.26	1050.0	957.5
46.27	1056.0	957.5
46.28	1037.0	957.4
46.29	1010.0	957.4
46.3	989.0	957.3
46.31	968.0	957.3
46.32	959.0	957.2
46.33	956.0	957.2
46.34	972.0	957.1
46.35	1014.0	957.1
46.36	999.0	957.0
46.37	977.0	957.0
46.38	993.0	956.9
46.39	977.0	956.9
46.4	1012.0	956.9
46.41	1013.0	956.8
46.42	1012.0	956.8
46.43	975.0	956.7
46.44	976.0	956.7
46.45	1012.0	956.6
46.46	1005.0	956.6
46.47	988.0	956.5
46.48	1008.0	956.5
46.49	1025.0	956.4
46.5	1022.0	956.4
46.51	997.0	956.3
46.52	979.0	956.3
46.53	982.0	956.2
46.54	1002.0	956.2
46.55	1014.0	956.1
46.56	989.0	956.1
46.57	986.0	956.0
46.58	1003.0	956.0
46.59	1017.0	955.9
46.6	1032.0	955.8
46.61	1024.0	955.8
46.62	1039.0	955.7
46.63	1016.0	955.7
46.64	1012.0	955.6
46.65	1015.0	955.6
46.66	1012.0	955.5
46.67	1009.0	955.5
46.68	1008.0	955.4
46.69	1022.0	955.4
46.7	996.0	955.3
46.71	969.0	955.3
46.72	1003.0	955.2
46.73	1021.0	955.2
46.74	981.0	955.1
46.75	990.0	955.1
46.76	1025.0	955.0
46.77	1005.0	955.0
46.78	1024.0	954.9
46.79	991.0	954.9
46.8	1010.0	954.8
46.81	1032.0	954.8
46.82	1001.0	954.7
46.83	1033.0	954.7
46.84	1036.0	954.6
46.85	1000.0	954.6
46.86	1011.0	954.5
46.87	1016.0	954.5
46.88	995.0	954.4
46.89	995.0	954.3
46.9	1021.0	954.3
46.91	1037.0	954.2
46.92	1007.0	954.2
46.93	1016.0	954.1
46.94	993.0	954.1
46.95	1015.0	954.0
46.96	1050.0	954.0
46.97	1021.0	953.9
46.98	1021.0	953.9
46.99	1009.0	953.8
47.0	997.0	953.8
47.01	1042.0	953.7
47.02	1054.0	953.7
47.03	1016.0	953.6
47.04	997.0	953.6
47.05	1013.0	953.5
47.06	1019.0	953.4
47.07	1034.0	953.4
47.08	1048.0	953.3
47.09	1051.0	953.3
47.1	1034.0	953.2
47.11	1027.0	953.2
47.12	1038.0	953.1
47.13	1040.0	953.1
47.14	1032.0	953.0
47.15	1032.0	953.0
47.16	1059.0	952.9
47.17	1074.0	952.9
47.18	1078.0	952.8
47.19	1055.0	952.7
47.2	1052.0	952.7
47.21	1068.0	952.6
47.22	1103.0	952.6
47.23	1112.0	952.5
47.24	1087.0	952.5
47.25	1076.0	952.4
47.26	1073.0	952.4
47.27	1076.0	952.3
47.28	1109.0	952.3
47.29	1111.0	952.2
47.3	1110.0	952.2
47.31	1114.0	952.1
47.32	1130.0	952.0
47.33	1133.0	952.0
47.34	1134.0	951.9
47.35	1166.0	951.9
47.36	1221.0	951.8
47.37	1245.0	951.8
47.38	1213.0	951.7
47.39	1196.0	951.7
47.4	1192.0	951.6
47.41	1184.0	951.6
47.42	1203.0	951.5
47.43	1185.0	951.5
47.44	1179.0	951.4
47.45	1184.0	951.3
47.46	1156.0	951.3
47.47	1158.0	951.2
47.48	1190.0	951.2
47.49	1184.0	951.1
47.5	1165.0	951.1
47.51	1185.0	951.0
47.52	1191.0	951.0
47.53	1187.0	950.9
47.54	1209.0	950.9
47.55	1191.0	950.8
47.56	1135.0	950.7
47.57	1126.0	950.7
47.58	1175.0	950.6
47.59	1215.0	950.6
47.6	1209.0	950.5
47.61	1220.0	950.5
47.62	1211.0	950.4
47.63	1213.0	950.4
47.64	1220.0	950.3
47.65	1217.0	950.3
47.66	1214.0	950.2
47.67	1230.0	950.2
47.68	1263.0	950.1
47.69	1258.0	950.0
47.7	1205.0	950.0
47.71	1165.0	949.9
47.72	1219.0	949.9
47.73	1263.0	949.8
47.74	1248.0	949.8
47.75	1252.0	949.7
47.76	1278.0	949.7
47.77	1287.0	949.6
47.78	1292.0	949.6
47.79	1285.0	949.5
47.8	1312.0	949.5
47.81	1353.0	949.4
47.82	1338.0	949.4
47.83	1356.0	949.3
47.84	1385.0	949.2
47.85	1367.0	949.2
47.86	1357.0	949.1
47.87	1393.0	949.1
47.88	1436.0	949.0
47.89	1412.0	949.0
47.9	1422.0	948.9
47.91	1445.0	948.9
47.92	1449.0	948.8
47.93	1450.0	948.8
47.94	1420.0	948.7
47.95	1446.0	948.7
47.96	1481.0	948.6
47.97	1450.0	948.6
47.98	1453.0	948.5
47.99	1486.0	948.4
48.0	1489.0	948.4
48.01	1489.0	948.3
48.02	1466.0	948.3
48.03	1487.0	948.2
48.04	1503.0	948.2
48.05	1513.0	948.1
48.06	1508.0	948.1
48.07	1480.0	948.0
48.08	1495.0	948.0
48.09	1547.0	947.9
48.1	1541.0	947.9
48.11	1496.0	947.8
48.12	1468.0	947.8
48.13	1497.0	947.7
48.14	1520.0	947.7
48.15	1493.0	947.6
48.16	1436.0	947.6
48.17	1437.0	947.5
48.18	1479.0	947.5
48.19	1476.0	947.4
48.2	1441.0	947.4
48.21	1413.0	947.3
48.22	1391.0	947.3
48.23	1388.0	947.2
48.24	1419.0	947.1
48.25	1395.0	947.1
48.26	1371.0	947.0
48.27	1380.0	947.0
48.28	1359.0	946.9
48.29	1328.0	946.9
48.3	1333.0	946.8
48.31	1312.0	946.8
48.32	1294.0	946.7
48.33	1309.0	946.7
48.34	1307.0	946.6
48.35	1292.0	946.6
48.36	1280.0	946.5
48.37	1271.0	946.5
48.38	1256.0	946.4
48.39	1230.0	946.4
48.4	1231.0	946.3
48.41	1233.0	946.3
48.42	1241.0	946.2
48.43	1226.0	946.2
48.44	1211.0	946.1
48.45	1207.0	946.1
48.46	1206.0	946.0
48.47	1205.0	946.0
48.48	1182.0	945.9
48.49	1172.0	945.9
48.5	1194.0	945.8
48.51	1179.0	945.8
48.52	1162.0	945.8
48.53	1156.0	945.7
48.54	1133.0	945.7
48.55	1124.0	945.6
48.56	1137.0	945.6
48.57	1150.0	945.5
48.58	1121.0	945.5
48.59	1094.0	945.4
48.6	1098.0	945.4
48.61	1116.0	945.3
48.62	1117.0	945.3
48.63	1109.0	945.2
48.64	1102.0	945.2
48.65	1085.0	945.1
48.66	1115.0	945.1
48.67	1121.0	945.0
48.68	1082.0	945.0
48.69	1052.0	944.9
48.7	1066.0	944.9
48.71	1083.0	944.8
48.72	1089.0	944.8
48.73	1113.0	944.8
48.74	1108.0	944.7
48.75	1075.0	944.7
48.76	1059.0	944.6
48.77	1046.0	944.6
48.78	1031.0	944.5
48.79	1035.0	944.5
48.8	1035.0	944.4
48.81	1015.0	944.4
48.82	1024.0	944.3
48.83	1039.0	944.3
48.84	1046.0	944.2
48.85	1060.0	944.2
48.86	1064.0	944.2
48.87	1064.0	944.1
48.88	1059.0	944.1
48.89	1048.0	944.0
48.9	1063.0	944.0
48.91	1057.0	943.9
48.92	1047.0	943.9
48.93	1056.0	943.8
48.94	1073.0	943.8
48.95	1080.0	943.8
48.96	1075.0	943.7
48.97	1072.0	943.7
48.98	1076.0	943.6
48.99	1057.0	943.6
49.0	1049.0	943.5
49.01	1076.0	943.5
49.02	1087.0	943.5
49.03	1084.0	943.4
49.04	1098.0	943.4
49.05	1093.0	943.3
49.06	1094.0	943.3
49.07	1103.0	943.3
49.08	1093.0	943.2
49.09	1108.0	943.2
49.1	1133.0	943.1
49.11	1157.0	943.1
49.12	1183.0	943.0
49.13	1189.0	943.0
49.14	1168.0	943.0
49.15	1166.0	942.9
49.16	1174.0	942.9
49.17	1182.0	942.8
49.18	1209.0	942.8
49.19	1205.0	942.8
49.2	1193.0	942.7
49.21	1198.0	942.7
49.22	1214.0	942.6
49.23	1249.0	942.6
49.24	1315.0	942.6
49.25	1378.0	942.5
49.26	1403.0	942.5
49.27	1430.0	942.4
49.28	1448.0	942.4
49.29	1476.0	942.4
49.3	1514.0	942.3
49.31	1545.0	942.3
49.32	1576.0	942.3
49.33	1564.0	942.2
49.34	1549.0	942.2
49.35	1554.0	942.1
49.36	1552.0	942.1
49.37	1532.0	942.1
49.38	1554.0	942.0
49.39	1567.0	942.0
49.4	1528.0	942.0
49.41	1483.0	941.9
49.42	1466.0	941.9
49.43	1484.0	941.9
49.44	1496.0	941.8
49.45	1477.0	941.8
49.46	1453.0	941.7
49.47	1449.0	941.7
49.48	1443.0	941.7
49.49	1414.0	941.6
49.5	1381.0	941.6
49.51	1369.0	941.6
49.52	1329.0	941.5
49.53	1273.0	941.5
49.54	1227.0	941.5
49.55	1201.0	941.4
49.56	1224.0	941.4
49.57	1200.0	941.4
49.58	1149.0	941.3
49.59	1136.0	941.3
49.6	1147.0	941.3
49.61	1161.0	941.2
49.62	1148.0	941.2
49.63	1115.0	941.2
49.64	1092.0	941.1
49.65	1102.0	941.1
49.66	1110.0	941.1
49.67	1102.0	941.0
49.68	1097.0	941.0
49.69	1088.0	941.0
49.7	1074.0	941.0
49.71	1067.0	940.9
49.72	1056.0	940.9
49.73	1062.0	940.9
49.74	1082.0	940.8
49.75	1091.0	940.8
49.76	1068.0	940.8
49.77	1057.0	940.7
49.78	1058.0	940.7
49.79	1053.0	940.7
49.8	1049.0	940.7
49.81	1029.0	940.6
49.82	1000.0	940.6
49.83	997.0	940.6
49.84	1019.0	940.5
49.85	1029.0	940.5
49.86	1018.0	940.5
49.87	1007.0	940.5
49.88	999.0	940.4
49.89	1003.0	940.4
49.9	998.0	940.4
49.91	994.0	940.4
49.92	1016.0	940.3
49.93	1027.0	940.3
49.94	1004.0	940.3
49.95	973.0	940.3
49.96	984.0	940.2
49.97	1016.0	940.2
49.98	1014.0	940.2
49.99	1006.0	940.2
50.0	997.0	940.1
50.01	983.0	940.1
50.02	995.0	940.1
50.03	992.0	940.1
50.04	979.0	940.0
50.05	981.0	940.0
50.06	976.0	940.0
50.07	989.0	940.0
50.08	1007.0	940.0
50.09	988.0	939.9
50.1	982.0	939.9
50.11	1001.0	939.9
50.12	1022.0	939.9
50.13	1010.0	939.8
50.14	997.0	939.8
50.15	1012.0	939.8
50.16	1003.0	939.8
50.17	996.0	939.8
50.18	997.0	939.7
50.19	994.0	939.7
50.2	990.0	939.7
50.21	978.0	939.7
50.22	972.0	939.7
50.23	961.0	939.7
50.24	962.0	939.6
50.25	990.0	939.6
50.26	982.0	939.6
50.27	948.0	939.6
50.28	952.0	939.6
50.29	977.0	939.5
50.3	975.0	939.5
50.31	972.0	939.5
50.32	995.0	939.5
50.33	988.0	939.5
50.34	973.0	939.5
50.35	969.0	939.5
50.36	982.0	939.4
50.37	999.0	939.4
50.38	985.0	939.4
50.39	969.0	939.4
50.4	983.0	939.4
50.41	963.0	939.4
50.42	955.0	939.4
50.43	983.0	939.3
50.44	982.0	939.3
50.45	995.0	939.3
50.46	988.0	939.3
50.47	967.0	939.3
50.48	970.0	939.3
50.49	972.0	939.3
50.5	976.0	939.3
50.51	975.0	939.2
50.52	982.0	939.2
50.53	983.0	939.2
50.54	959.0	939.2
50.55	969.0	939.2
50.56	997.0	939.2
50.57	993.0	939.2
50.58	971.0	939.2
50.59	955.0	939.2
50.6	939.0	939.2
50.61	941.0	939.2
50.62	967.0	939.1
50.63	950.0	939.1
50.64	943.0	939.1
50.65	956.0	939.1
50.66	965.0	939.1
50.67	974.0	939.1
50.68	979.0	939.1
50.69	994.0	939.1
50.7	996.0	939.1
50.71	1006.0	939.1
50.72	1015.0	939.1
50.73	1013.0	939.1
50.74	991.0	939.1
50.75	981.0	939.1
50.76	997.0	939.1
50.77	987.0	939.1
50.78	963.0	939.1
50.79	953.0	939.1
50.8	976.0	939.1
50.81	984.0	939.1
50.82	950.0	939.1
50.83	946.0	939.1
50.84	942.0	939.1
50.85	928.0	939.1
50.86	953.0	939.1
50.87	962.0	939.1
50.88	967.0	939.1
50.89	993.0	939.1
50.9	1004.0	939.1
50.91	991.0	939.1
50.92	980.0	939.1
50.93	991.0	939.1
50.94	966.0	939.1
50.95	939.0	939.1
50.96	960.0	939.1
50.97	975.0	939.1
50.98	949.0	939.1
50.99	946.0	939.1
51.0	976.0	939.1
51.01	998.0	939.1
51.02	987.0	939.1
51.03	975.0	939.1
51.04	966.0	939.1
51.05	954.0	939.1
51.06	972.0	939.1
51.07	969.0	939.1
51.08	961.0	939.1
51.09	969.0	939.1
51.1	962.0	939.1
51.11	957.0	939.1
51.12	963.0	939.2
51.13	968.0	939.2
51.14	979.0	939.2
51.15	993.0	939.2
51.16	997.0	939.2
51.17	1003.0	939.2
51.18	1010.0	939.2
51.19	993.0	939.2
51.2	993.0	939.2
51.21	1016.0	939.2
51.22	1009.0	939.3
51.23	994.0	939.3
51.24	1004.0	939.3
51.25	1011.0	939.3
51.26	998.0	939.3
51.27	986.0	939.3
51.28	974.0	939.3
51.29	970.0	939.3
51.3	969.0	939.3
51.31	963.0	939.4
51.32	969.0	939.4
51.33	980.0	939.4
51.34	983.0	939.4
51.35	997.0	939.4
51.36	990.0	939.4
51.37	967.0	939.4
51.38	969.0	939.5
51.39	982.0	939.5
51.4	985.0	939.5
51.41	992.0	939.5
51.42	992.0	939.5
51.43	988.0	939.5
51.44	992.0	939.6
51.45	975.0	939.6
51.46	980.0	939.6
51.47	978.0	939.6
51.48	963.0	939.6
51.49	992.0	939.6
51.5	994.0	939.7
51.51	978.0	939.7
51.52	969.0	939.7
51.53	959.0	939.7
51.54	980.0	939.7
51.55	1001.0	939.8
51.56	994.0	939.8
51.57	989.0	939.8
51.58	987.0	939.8
51.59	998.0	939.8
51.6	995.0	939.9
51.61	995.0	939.9
51.62	1008.0	939.9
51.63	1016.0	939.9
51.64	1035.0	940.0
51.65	1004.0	940.0
51.66	970.0	940.0
51.67	995.0	940.0
51.68	1001.0	940.1
51.69	990.0	940.1
51.7	999.0	940.1
51.71	994.0	940.1
51.72	973.0	940.2
51.73	959.0	940.2
51.74	960.0	940.2
51.75	969.0	940.2
51.76	984.0	940.3
51.77	1004.0	940.3
51.78	1008.0	940.3
51.79	977.0	940.3
51.8	960.0	940.4
51.81	982.0	940.4
51.82	1001.0	940.4
51.83	1022.0	940.4
51.84	1030.0	940.5
51.85	1019.0	940.5
51.86	1020.0	940.5
51.87	1015.0	940.6
51.88	989.0	940.6
51.89	994.0	940.6
51.9	1005.0	940.6
51.91	1005.0	940.7
51.92	994.0	940.7
51.93	983.0	940.7
51.94	976.0	940.8
51.95	986.0	940.8
51.96	992.0	940.8
51.97	996.0	940.9
51.98	992.0	940.9
51.99	981.0	940.9
52.0	975.0	941.0
52.01	986.0	941.0
52.02	995.0	941.0
52.03	994.0	941.1
52.04	996.0	941.1
52.05	992.0	941.1
52.06	995.0	941.2
52.07	983.0	941.2
52.08	971.0	941.2
52.09	989.0	941.3
52.1	999.0	941.3
52.11	983.0	941.3
52.12	974.0	941.4
52.13	987.0	941.4
52.14	1024.0	941.4
52.15	1025.0	941.5
52.16	1005.0	941.5
52.17	1002.0	941.5
52.18	1006.0	941.6
52.19	1010.0	941.6
52.2	1005.0	941.7
52.21	1007.0	941.7
52.22	1001.0	941.7
52.23	998.0	941.8
52.24	1006.0	941.8
52.25	1007.0	941.8
52.26	993.0	941.9
52.27	968.0	941.9
52.28	946.0	942.0
52.29	949.0	942.0
52.3	969.0	942.0
52.31	977.0	942.1
52.32	986.0	942.1
52.33	1001.0	942.2
52.34	994.0	942.2
52.35	948.0	942.2
52.36	939.0	942.3
52.37	977.0	942.3
52.38	1006.0	942.4
52.39	1021.0	942.4
52.4	1026.0	942.4
52.41	1013.0	942.5
52.42	991.0	942.5
52.43	994.0	942.6
52.44	1009.0	942.6
52.45	995.0	942.7
52.46	975.0	942.7
52.47	995.0	942.7
52.48	1010.0	942.8
52.49	1003.0	942.8
52.5	983.0	942.9
52.51	988.0	942.9
52.52	1015.0	943.0
52.53	1005.0	943.0
52.54	977.0	943.1
52.55	994.0	943.1
52.56	1023.0	943.2
52.57	1015.0	943.2
52.58	1008.0	943.2
52.59	996.0	943.3
52.6	987.0	943.3
52.61	1004.0	943.4
52.62	1004.0	943.4
52.63	982.0	943.5
52.64	969.0	943.5
52.65	978.0	943.6
52.66	1001.0	943.6
52.67	1009.0	943.7
52.68	1013.0	943.7
52.69	1015.0	943.8
52.7	1008.0	943.8
52.71	1015.0	943.9
52.72	1048.0	943.9
52.73	1036.0	944.0
52.74	987.0	944.0
52.75	994.0	944.1
52.76	1026.0	944.1
52.77	1047.0	944.2
52.78	1043.0	944.2
52.79	1023.0	944.3
52.8	1013.0	944.3
52.81	1001.0	944.4
52.82	1028.0	944.4
52.83	1043.0	944.5
52.84	1047.0	944.5
52.85	1046.0	944.6
52.86	1020.0	944.6
52.87	1007.0	944.7
52.88	1000.0	944.7
52.89	1018.0	944.8
52.9	1031.0	944.8
52.91	1034.0	944.9
52.92	1045.0	944.9
52.93	1032.0	945.0
52.94	1040.0	945.1
52.95	1066.0	945.1
52.96	1085.0	945.2
52.97	1081.0	945.2
52.98	1066.0	945.3
52.99	1061.0	945.3
53.0	1058.0	945.4
53.01	1067.0	945.4
53.02	1041.0	945.5
53.03	1019.0	945.5
53.04	1044.0	945.6
53.05	1065.0	945.7
53.06	1056.0	945.7
53.07	1068.0	945.8
53.08	1084.0	945.8
53.09	1082.0	945.9
53.1	1099.0	945.9
53.11	1085.0	946.0
53.12	1074.0	946.1
53.13	1084.0	946.1
53.14	1109.0	946.2
53.15	1112.0	946.2
53.16	1077.0	946.3
53.17	1106.0	946.4
53.18	1126.0	946.4
53.19	1140.0	946.5
53.2	1158.0	946.5
53.21	1150.0	946.6
53.22	1136.0	946.7
53.23	1144.0	946.7
53.24	1152.0	946.8
53.25	1180.0	946.8
53.26	1200.0	946.9
53.27	1204.0	947.0
53.28	1222.0	947.0
53.29	1226.0	947.1
53.3	1215.0	947.1
53.31	1210.0	947.2
53.32	1209.0	947.3
53.33	1215.0	947.3
53.34	1199.0	947.4
53.35	1179.0	947.4
53.36	1181.0	947.5
53.37	1172.0	947.6
53.38	1174.0	947.6
53.39	1216.0	947.7
53.4	1206.0	947.8
53.41	1177.0	947.8
53.42	1213.0	947.9
53.43	1224.0	947.9
53.44	1197.0	948.0
53.45	1208.0	948.1
53.46	1216.0	948.1
53.47	1202.0	948.2
53.48	1174.0	948.3
53.49	1161.0	948.3
53.5	1156.0	948.4
53.51	1178.0	948.5
53.52	1197.0	948.5
53.53	1198.0	948.6
53.54	1191.0	948.7
53.55	1190.0	948.7
53.56	1195.0	948.8
53.57	1185.0	948.9
53.58	1177.0	948.9
53.59	1204.0	949.0
53.6	1215.0	949.1
53.61	1209.0	949.1
53.62	1196.0	949.2
53.63	1195.0	949.3
53.64	1219.0	949.3
53.65	1218.0	949.4
53.66	1167.0	949.5
53.67	1187.0	949.5
53.68	1218.0	949.6
53.69	1196.0	949.7
53.7	1203.0	949.7
53.71	1222.0	949.8
53.72	1255.0	949.9
53.73	1285.0	949.9
53.74	1292.0	950.0
53.75	1315.0	950.1
53.76	1310.0	950.2
53.77	1270.0	950.2
53.78	1274.0	950.3
53.79	1289.0	950.4
53.8	1290.0	950.4
53.81	1284.0	950.5
53.82	1292.0	950.6
53.83	1299.0	950.6
53.84	1319.0	950.7
53.85	1323.0	950.8
53.86	1321.0	950.9
53.87	1325.0	950.9
53.88	1327.0	951.0
53.89	1326.0	951.1
53.9	1335.0	951.1
53.91	1368.0	951.2
53.92	1366.0	951.3
53.93	1347.0	951.4
53.94	1354.0	951.4
53.95	1355.0	951.5
53.96	1398.0	951.6
53.97	1447.0	951.6
53.98	1429.0	951.7
53.99	1432.0	951.8
54.0	1467.0	951.9
54.01	1457.0	951.9
54.02	1431.0	952.0
54.03	1446.0	952.1
54.04	1491.0	952.2
54.05	1500.0	952.2
54.06	1483.0	952.3
54.07	1440.0	952.4
54.08	1405.0	952.5
54.09	1435.0	952.5
54.1	1452.0	952.6
54.11	1427.0	952.7
54.12	1407.0	952.8
54.13	1412.0	952.8
54.14	1457.0	952.9
54.15	1454.0	953.0
54.16	1386.0	953.1
54.17	1395.0	953.1
54.18	1426.0	953.2
54.19	1411.0	953.3
54.2	1407.0	953.4
54.21	1426.0	953.4
54.22	1428.0	953.5
54.23	1411.0	953.6
54.24	1398.0	953.7
54.25	1384.0	953.8
54.26	1362.0	953.8
54.27	1351.0	953.9
54.28	1368.0	954.0
54.29	1379.0	954.1
54.3	1356.0	954.1
54.31	1339.0	954.2
54.32	1355.0	954.3
54.33	1359.0	954.4
54.34	1349.0	954.5
54.35	1320.0	954.5
54.36	1310.0	954.6
54.37	1320.0	954.7
54.38	1303.0	954.8
54.39	1293.0	954.8
54.4	1296.0	954.9
54.41	1301.0	955.0
54.42	1324.0	955.1
54.43	1307.0	955.2
54.44	1320.0	955.2
54.45	1321.0	955.3
54.46	1303.0	955.4
54.47	1316.0	955.5
54.48	1337.0	955.6
54.49	1323.0	955.6
54.5	1320.0	955.7
54.51	1318.0	955.8
54.52	1309.0	955.9
54.53	1290.0	956.0
54.54	1297.0	956.0
54.55	1316.0	956.1
54.56	1329.0	956.2
54.57	1297.0	956.3
54.58	1283.0	956.4
54.59	1270.0	956.5
54.6	1270.0	956.5
54.61	1307.0	956.6
54.62	1290.0	956.7
54.63	1278.0	956.8
54.64	1308.0	956.9
54.65	1327.0	956.9
54.66	1346.0	957.0
54.67	1342.0	957.1
54.68	1351.0	957.2
54.69	1342.0	957.3
54.7	1342.0	957.4
54.71	1327.0	957.4
54.72	1330.0	957.5
54.73	1335.0	957.6
54.74	1354.0	957.7
54.75	1408.0	957.8
54.76	1427.0	957.9
54.77	1426.0	957.9
54.78	1414.0	958.0
54.79	1415.0	958.1
54.8	1444.0	958.2
54.81	1471.0	958.3
54.82	1500.0	958.4
54.83	1501.0	958.4
54.84	1482.0	958.5
54.85	1484.0	958.6
54.86	1507.0	958.7
54.87	1531.0	958.8
54.88	1584.0	958.9
54.89	1635.0	959.0
54.9	1647.0	959.0
54.91	1672.0	959.1
54.92	1667.0	959.2
54.93	1654.0	959.3
54.94	1706.0	959.4
54.95	1744.0	959.5
54.96	1773.0	959.6
54.97	1787.0	959.6
54.98	1844.0	959.7
54.99	1889.0	959.8
55.0	1899.0	959.9
55.01	1977.0	960.0
55.02	2055.0	960.1
55.03	2107.0	960.2
55.04	2148.0	960.2
55.05	2188.0	960.3
55.06	2223.0	960.4
55.07	2310.0	960.5
55.08	2400.0	960.6
55.09	2515.0	960.7
55.1	2610.0	960.8
55.11	2674.0	960.9
55.12	2702.0	960.9
55.13	2735.0	961.0
55.14	2796.0	961.1
55.15	2852.0	961.2
55.16	2924.0	961.3
55.17	2964.0	961.4
55.18	2959.0	961.5
55.19	2945.0	961.6
55.2	2890.0	961.7
55.21	2869.0	961.7
55.22	2829.0	961.8
55.23	2752.0	961.9
55.24	2700.0	962.0
55.25	2697.0	962.1
55.26	2694.0	962.2
55.27	2676.0	962.3
55.28	2621.0	962.4
55.29	2568.0	962.5
55.3	2557.0	962.5
55.31	2524.0	962.6
55.32	2459.0	962.7
55.33	2412.0	962.8
55.34	2383.0	962.9
55.35	2287.0	963.0
55.36	2206.0	963.1
55.37	2140.0	963.2
55.38	2063.0	963.3
55.39	1989.0	963.3
55.4	1924.0	963.4
55.41	1882.0	963.5
55.42	1843.0	963.6
55.43	1826.0	963.7
55.44	1799.0	963.8
55.45	1708.0	963.9
55.46	1667.0	964.0
55.47	1649.0	964.1
55.48	1571.0	964.2
55.49	1520.0	964.3
55.5	1540.0	964.3
55.51	1531.0	964.4
55.52	1507.0	964.5
55.53	1483.0	964.6
55.54	1448.0	964.7
55.55	1401.0	964.8
55.56	1404.0	964.9
55.57	1391.0	965.0
55.58	1379.0	965.1
55.59	1359.0	965.2
55.6	1322.0	965.3
55.61	1316.0	965.3
55.62	1326.0	965.4
55.63	1318.0	965.5
55.64	1293.0	965.6
55.65	1269.0	965.7
55.66	1251.0	965.8
55.67	1241.0	965.9
55.68	1241.0	966.0
55.69	1236.0	966.1
55.7	1246.0	966.2
55.71	1241.0	966.3
55.72	1253.0	966.4
55.73	1254.0	966.5
55.74	1212.0	966.6
55.75	1184.0	966.6
55.76	1190.0	966.7
55.77	1161.0	966.8
55.78	1151.0	966.9
55.79	1193.0	967.0
55.8	1198.0	967.1
55.81	1164.0	967.2
55.82	1140.0	967.3
55.83	1142.0	967.4
55.84	1135.0	967.5
55.85	1110.0	967.6
55.86	1117.0	967.7
55.87	1143.0	967.8
55.88	1140.0	967.9
55.89	1117.0	967.9
55.9	1112.0	968.0
55.91	1152.0	968.1
55.92	1140.0	968.2
55.93	1109.0	968.3
55.94	1078.0	968.4
55.95	1078.0	968.5
55.96	1129.0	968.6
55.97	1132.0	968.7
55.98	1086.0	968.8
55.99	1070.0	968.9
56.0	1093.0	969.0
56.01	1094.0	969.1
56.02	1078.0	969.2
56.03	1057.0	969.3
56.04	1068.0	969.4
56.05	1076.0	969.5
56.06	1078.0	969.6
56.07	1107.0	969.6
56.08	1106.0	969.7
56.09	1117.0	969.8
56.1	1097.0	969.9
56.11	1047.0	970.0
56.12	1057.0	970.1
56.13	1061.0	970.2
56.14	1053.0	970.3
56.15	1070.0	970.4
56.16	1090.0	970.5
56.17	1085.0	970.6
56.18	1065.0	970.7
56.19	1046.0	970.8
56.2	1046.0	970.9
56.21	1063.0	971.0
56.22	1082.0	971.1
56.23	1075.0	971.2
56.24	1046.0	971.3
56.25	1030.0	971.4
56.26	1025.0	971.5
56.27	1061.0	971.5
56.28	1084.0	971.6
56.29	1081.0	971.7
56.3	1083.0	971.8
56.31	1092.0	971.9
56.32	1087.0	972.0
56.33	1086.0	972.1
56.34	1070.0	972.2
56.35	1067.0	972.3
56.36	1042.0	972.4
56.37	1040.0	972.5
56.38	1034.0	972.6
56.39	1028.0	972.7
56.4	1039.0	972.8
56.41	1050.0	972.9
56.42	1075.0	973.0
56.43	1090.0	973.1
56.44	1088.0	973.2
56.45	1049.0	973.3
56.46	1021.0	973.4
56.47	1008.0	973.5
56.48	1032.0	973.6
56.49	1080.0	973.7
56.5	1070.0	973.8
56.51	1050.0	973.9
56.52	1063.0	974.0
56.53	1070.0	974.0
56.54	1046.0	974.1
56.55	1048.0	974.2
56.56	1065.0	974.3
56.57	1057.0	974.4
56.58	1049.0	974.5
56.59	1062.0	974.6
56.6	1052.0	974.7
56.61	1066.0	974.8
56.62	1081.0	974.9
56.63	1048.0	975.0
56.64	1055.0	975.1
56.65	1097.0	975.2
56.66	1110.0	975.3
56.67	1116.0	975.4
56.68	1085.0	975.5
56.69	1079.0	975.6
56.7	1108.0	975.7
56.71	1109.0	975.8
56.72	1095.0	975.9
56.73	1096.0	976.0
56.74	1105.0	976.1
56.75	1123.0	976.2
56.76	1113.0	976.3
56.77	1108.0	976.4
56.78	1073.0	976.5
56.79	1039.0	976.6
56.8	1064.0	976.7
56.81	1081.0	976.8
56.82	1080.0	976.9
56.83	1081.0	977.0
56.84	1064.0	977.1
56.85	1044.0	977.1
56.86	1050.0	977.2
56.87	1072.0	977.3
56.88	1099.0	977.4
56.89	1082.0	977.5
56.9	1063.0	977.6
56.91	1065.0	977.7
56.92	1059.0	977.8
56.93	1050.0	977.9
56.94	1070.0	978.0
56.95	1094.0	978.1
56.96	1076.0	978.2
56.97	1066.0	978.3
56.98	1081.0	978.4
56.99	1122.0	978.5
57.0	1124.0	978.6
57.01	1113.0	978.7
57.02	1100.0	978.8
57.03	1108.0	978.9
57.04	1103.0	979.0
57.05	1095.0	979.1
57.06	1109.0	979.2
57.07	1110.0	979.3
57.08	1085.0	979.4
57.09	1078.0	979.5
57.1	1104.0	979.6
57.11	1108.0	979.7
57.12	1071.0	979.8
57.13	1074.0	979.9
57.14	1082.0	980.0
57.15	1058.0	980.1
57.16	1048.0	980.2
57.17	1057.0	980.3
57.18	1069.0	980.4
57.19	1079.0	980.5
57.2	1076.0	980.6
57.21	1049.0	980.6
57.22	1028.0	980.7
57.23	1040.0	980.8
57.24	1038.0	980.9
57.25	1066.0	981.0
57.26	1049.0	981.1
57.27	1010.0	981.2
57.28	1018.0	981.3
57.29	1010.0	981.4
57.3	1003.0	981.5
57.31	1024.0	981.6
57.32	1038.0	981.7
57.33	1043.0	981.8
57.34	1023.0	981.9
57.35	1025.0	982.0
57.36	1014.0	982.1
57.37	987.0	982.2
57.38	1002.0	982.3
57.39	1006.0	982.4
57.4	1031.0	982.5
57.41	1049.0	982.6
57.42	1054.0	982.7
57.43	1028.0	982.8
57.44	1021.0	982.9
57.45	1045.0	983.0
57.46	1046.0	983.1
57.47	1025.0	983.2
57.48	1012.0	983.3
57.49	981.0	983.4
57.5	987.0	983.5
57.51	1005.0	983.6
57.52	1012.0	983.7
57.53	1022.0	983.8
57.54	1014.0	983.8
57.55	986.0	983.9
57.56	999.0	984.0
57.57	1007.0	984.1
57.58	1013.0	984.2
57.59	1026.0	984.3
57.6	1038.0	984.4
57.61	1020.0	984.5
57.62	1025.0	984.6
57.63	1007.0	984.7
57.64	1033.0	984.8
57.65	1005.0	984.9
57.66	989.0	985.0
57.67	1019.0	985.1
57.68	1030.0	985.2
57.69	1036.0	985.3
57.7	1019.0	985.4
57.71	997.0	985.5
57.72	1007.0	985.6
57.73	1026.0	985.7
57.74	1043.0	985.8
57.75	1037.0	985.9
57.76	1019.0	986.0
57.77	1022.0	986.1
57.78	1000.0	986.2
57.79	962.0	986.3
57.8	989.0	986.4
57.81	994.0	986.4
57.82	1022.0	986.5
57.83	1047.0	986.6
57.84	1030.0	986.7
57.85	1014.0	986.8
57.86	1025.0	986.9
57.87	1010.0	987.0
57.88	1022.0	987.1
57.89	1030.0	987.2
57.9	1023.0	987.3
57.91	1019.0	987.4
57.92	1022.0	987.5
57.93	1004.0	987.6
57.94	1005.0	987.7
57.95	1018.0	987.8
57.96	1023.0	987.9
57.97	1035.0	988.0
57.98	1033.0	988.1
57.99	1026.0	988.2
58.0	1030.0	988.3
58.01	1016.0	988.4
58.02	1007.0	988.5
58.03	998.0	988.5
58.04	1029.0	988.6
58.05	1012.0	988.7
58.06	1014.0	988.8
58.07	1009.0	988.9
58.08	1002.0	989.0
58.09	1017.0	989.1
58.1	1011.0	989.2
58.11	1011.0	989.3
58.12	1017.0	989.4
58.13	1022.0	989.5
58.14	1077.0	989.6
58.15	1065.0	989.7
58.16	1022.0	989.8
58.17	1035.0	989.9
58.18	1067.0	990.0
58.19	1082.0	990.1
58.2	1069.0	990.2
58.21	1074.0	990.3
58.22	1111.0	990.3
58.23	1119.0	990.4
58.24	1086.0	990.5
58.25	1069.0	990.6
58.26	1036.0	990.7
58.27	1067.0	990.8
58.28	1066.0	990.9
58.29	1054.0	991.0
58.3	1041.0	991.1
58.31	1061.0	991.2
58.32	1070.0	991.3
58.33	1031.0	991.4
58.34	1047.0	991.5
58.35	1059.0	991.6
58.36	1067.0	991.7
58.37	1074.0	991.8
58.38	1075.0	991.8
58.39	1087.0	991.9
58.4	1095.0	992.0
58.41	1106.0	992.1
58.42	1112.0	992.2
58.43	1096.0	992.3
58.44	1096.0	992.4
58.45	1097.0	992.5
58.46	1079.0	992.6
58.47	1079.0	992.7
58.48	1063.0	992.8
58.49	1046.0	992.9
58.5	1062.0	993.0
58.51	1046.0	993.1
58.52	1059.0	993.1
58.53	1034.0	993.2
58.54	1039.0	993.3
58.55	1060.0	993.4
58.56	1056.0	993.5
58.57	1045.0	993.6
58.58	1064.0	993.7
58.59	1042.0	993.8
58.6	1027.0	993.9
58.61	1039.0	994.0
58.62	1062.0	994.1
58.63	1051.0	994.2
58.64	1028.0	994.2
58.65	1034.0	994.3
58.66	1033.0	994.4
58.67	1053.0	994.5
58.68	1018.0	994.6
58.69	1009.0	994.7
58.7	1014.0	994.8
58.71	1021.0	994.9
58.72	1052.0	995.0
58.73	1045.0	995.1
58.74	1028.0	995.2
58.75	1006.0	995.3
58.76	1033.0	995.3
58.77	1051.0	995.4
58.78	1028.0	995.5
58.79	1018.0	995.6
58.8	1034.0	995.7
58.81	1021.0	995.8
58.82	1054.0	995.9
58.83	1082.0	996.0
58.84	1060.0	996.1
58.85	1052.0	996.2
58.86	1063.0	996.2
58.87	1036.0	996.3
58.88	1060.0	996.4
58.89	1052.0	996.5
58.9	1030.0	996.6
58.91	1050.0	996.7
58.92	1061.0	996.8
58.93	1088.0	996.9
58.94	1098.0	997.0
58.95	1093.0	997.1
58.96	1070.0	997.1
58.97	1070.0	997.2
58.98	1046.0	997.3
58.99	1042.0	997.4
59.0	1056.0	997.5
59.01	1078.0	997.6
59.02	1047.0	997.7
59.03	1039.0	997.8
59.04	1030.0	997.9
59.05	1042.0	997.9
59.06	1055.0	998.0
59.07	1036.0	998.1
59.08	1027.0	998.2
59.09	1046.0	998.3
59.1	1047.0	998.4
59.11	1019.0	998.5
59.12	1002.0	998.6
59.13	1022.0	998.7
59.14	1033.0	998.7
59.15	1037.0	998.8
59.16	1038.0	998.9
59.17	1068.0	999.0
59.18	1080.0	999.1
59.19	1065.0	999.2
59.2	1065.0	999.3
59.21	1086.0	999.4
59.22	1048.0	999.4
59.23	1002.0	999.5
59.24	1028.0	999.6
59.25	1052.0	999.7
59.26	1039.0	999.8
59.27	1045.0	999.9
59.28	1029.0	1000.0
59.29	1030.0	1000.1
59.3	1023.0	1000.1
59.31	1065.0	1000.2
59.32	1048.0	1000.3
59.33	1043.0	1000.4
59.34	1025.0	1000.5
59.35	1039.0	1000.6
59.36	1068.0	1000.7
59.37	1029.0	1000.7
59.38	982.0	1000.8
59.39	1015.0	1000.9
59.4	1053.0	1001.0
59.41	1051.0	1001.1
59.42	1043.0	1001.2
59.43	1048.0	1001.3
59.44	1056.0	1001.3
59.45	1050.0	1001.4
59.46	1057.0	1001.5
59.47	1025.0	1001.6
59.48	1052.0	1001.7
59.49	1054.0	1001.8
59.5	1029.0	1001.9
59.51	1021.0	1001.9
59.52	1012.0	1002.0
59.53	1007.0	1002.1
59.54	1020.0	1002.2
59.55	1013.0	1002.3
59.56	1036.0	1002.4
59.57	1035.0	1002.4
59.58	1051.0	1002.5
59.59	1050.0	1002.6
59.6	1031.0	1002.7
59.61	1023.0	1002.8
59.62	1021.0	1002.9
59.63	1017.0	1002.9
59.64	1013.0	1003.0
59.65	1042.0	1003.1
59.66	1022.0	1003.2
59.67	1011.0	1003.3
59.68	1031.0	1003.4
59.69	1053.0	1003.4
59.7	1058.0	1003.5
59.71	998.0	1003.6
59.72	1010.0	1003.7
59.73	1003.0	1003.8
59.74	1009.0	1003.9
59.75	1039.0	1003.9
59.76	1025.0	1004.0
59.77	1026.0	1004.1
59.78	1024.0	1004.2
59.79	1035.0	1004.3
59.8	1006.0	1004.4
59.81	1013.0	1004.4
59.82	1027.0	1004.5
59.83	997.0	1004.6
59.84	1006.0	1004.7
59.85	1030.0	1004.8
59.86	1028.0	1004.8
59.87	998.0	1004.9
59.88	994.0	1005.0
59.89	976.0	1005.1
59.9	988.0	1005.2
59.91	984.0	1005.2
59.92	1005.0	1005.3
59.93	1046.0	1005.4
59.94	1012.0	1005.5
59.95	1003.0	1005.6
59.96	1028.0	1005.7
59.97	1037.0	1005.7
59.98	1054.0	1005.8
59.99	1033.0	1005.9
60.0	984.0	1006.0
60.01	1000.0	1006.1
60.02	993.0	1006.1
60.03	1006.0	1006.2
60.04	1024.0	1006.3
60.05	1023.0	1006.4
60.06	1019.0	1006.4
60.07	1013.0	1006.5
60.08	1031.0	1006.6
60.09	1035.0	1006.7
60.1	1029.0	1006.8
60.11	1040.0	1006.8
60.12	1067.0	1006.9
60.13	1029.0	1007.0
60.14	1013.0	1007.1
60.15	1050.0	1007.2
60.16	1044.0	1007.2
60.17	1001.0	1007.3
60.18	972.0	1007.4
60.19	1029.0	1007.5
60.2	1013.0	1007.5
60.21	1009.0	1007.6
60.22	1019.0	1007.7
60.23	1039.0	1007.8
60.24	1043.0	1007.9
60.25	1017.0	1007.9
60.26	1021.0	1008.0
60.27	1060.0	1008.1
60.28	1056.0	1008.2
60.29	1014.0	1008.2
60.3	998.0	1008.3
60.31	1032.0	1008.4
60.32	1046.0	1008.5
60.33	1063.0	1008.5
60.34	1068.0	1008.6
60.35	1047.0	1008.7
60.36	1044.0	1008.8
60.37	1057.0	1008.8
60.38	1009.0	1008.9
60.39	1044.0	1009.0
60.4	1067.0	1009.1
60.41	1058.0	1009.1
60.42	1063.0	1009.2
60.43	1065.0	1009.3
60.44	1107.0	1009.4
60.45	1107.0	1009.4
60.46	1097.0	1009.5
60.47	1122.0	1009.6
60.48	1123.0	1009.7
60.49	1096.0	1009.7
60.5	1114.0	1009.8
60.51	1124.0	1009.9
60.52	1107.0	1010.0
60.53	1162.0	1010.0
60.54	1224.0	1010.1
60.55	1201.0	1010.2
60.56	1172.0	1010.3
60.57	1194.0	1010.3
60.58	1232.0	1010.4
60.59	1241.0	1010.5
60.6	1267.0	1010.5
60.61	1226.0	1010.6
60.62	1211.0	1010.7
60.63	1208.0	1010.8
60.64	1208.0	1010.8
60.65	1221.0	1010.9
60.66	1222.0	1011.0
60.67	1199.0	1011.0
60.68	1225.0	1011.1
60.69	1235.0	1011.2
60.7	1160.0	1011.3
60.71	1145.0	1011.3
60.72	1162.0	1011.4
60.73	1175.0	1011.5
60.74	1168.0	1011.5
60.75	1166.0	1011.6
60.76	1197.0	1011.7
60.77	1167.0	1011.8
60.78	1158.0	1011.8
60.79	1114.0	1011.9
60.8	1141.0	1012.0
60.81	1125.0	1012.0
60.82	1116.0	1012.1
60.83	1146.0	1012.2
60.84	1151.0	1012.2
60.85	1135.0	1012.3
60.86	1130.0	1012.4
60.87	1106.0	1012.5
60.88	1130.0	1012.5
60.89	1145.0	1012.6
60.9	1120.0	1012.7
60.91	1088.0	1012.7
60.92	1106.0	1012.8
60.93	1106.0	1012.9
60.94	1073.0	1012.9
60.95	1084.0	1013.0
60.96	1145.0	1013.1
60.97	1109.0	1013.1
60.98	1087.0	1013.2
60.99	1112.0	1013.3
61.0	1126.0	1013.3
61.01	1128.0	1013.4
61.02	1126.0	1013.5
61.03	1133.0	1013.5
61.04	1129.0	1013.6
61.05	1136.0	1013.7
61.06	1137.0	1013.7
61.07	1138.0	1013.8
61.08	1152.0	1013.9
61.09	1173.0	1013.9
61.1	1197.0	1014.0
61.11	1207.0	1014.1
61.12	1201.0	1014.1
61.13	1244.0	1014.2
61.14	1235.0	1014.3
61.15	1222.0	1014.3
61.16	1233.0	1014.4
61.17	1213.0	1014.5
61.18	1218.0	1014.5
61.19	1274.0	1014.6
61.2	1291.0	1014.6
61.21	1326.0	1014.7
61.22	1370.0	1014.8
61.23	1397.0	1014.8
61.24	1411.0	1014.9
61.25	1450.0	1015.0
61.26	1465.0	1015.0
61.27	1546.0	1015.1
61.28	1626.0	1015.2
61.29	1674.0	1015.2
61.3	1716.0	1015.3
61.31	1824.0	1015.3
61.32	1889.0	1015.4
61.33	1906.0	1015.5
61.34	2000.0	1015.5
61.35	2033.0	1015.6
61.36	2097.0	1015.6
61.37	2125.0	1015.7
61.38	2128.0	1015.8
61.39	2082.0	1015.8
61.4	2089.0	1015.9
61.41	2071.0	1016.0
61.42	2004.0	1016.0
61.43	1942.0	1016.1
61.44	1957.0	1016.1
61.45	1929.0	1016.2
61.46	1827.0	1016.3
61.47	1777.0	1016.3
61.48	1753.0	1016.4
61.49	1751.0	1016.4
61.5	1762.0	1016.5
61.51	1733.0	1016.6
61.52	1722.0	1016.6
61.53	1749.0	1016.7
61.54	1741.0	1016.7
61.55	1696.0	1016.8
61.56	1674.0	1016.8
61.57	1634.0	1016.9
61.58	1617.0	1017.0
61.59	1604.0	1017.0
61.6	1519.0	1017.1
61.61	1510.0	1017.1
61.62	1458.0	1017.2
61.63	1425.0	1017.3
61.64	1395.0	1017.3
61.65	1384.0	1017.4
61.66	1375.0	1017.4
61.67	1356.0	1017.5
61.68	1303.0	1017.5
61.69	1279.0	1017.6
61.7	1247.0	1017.7
61.71	1264.0	1017.7
61.72	1221.0	1017.8
61.73	1207.0	1017.8
61.74	1217.0	1017.9
61.75	1232.0	1017.9
61.76	1253.0	1018.0
61.77	1185.0	1018.0
61.78	1180.0	1018.1
61.79	1222.0	1018.1
61.8	1244.0	1018.2
61.81	1253.0	1018.3
61.82	1244.0	1018.3
61.83	1240.0	1018.4
61.84	1226.0	1018.4
61.85	1256.0	1018.5
61.86	1215.0	1018.5
61.87	1222.0	1018.6
61.88	1267.0	1018.6
61.89	1262.0	1018.7
61.9	1271.0	1018.7
61.91	1258.0	1018.8
61.92	1245.0	1018.8
61.93	1273.0	1018.9
61.94	1285.0	1018.9
61.95	1320.0	1019.0
61.96	1355.0	1019.1
61.97	1386.0	1019.1
61.98	1379.0	1019.2
61.99	1383.0	1019.2
62.0	1361.0	1019.3
62.01	1347.0	1019.3
62.02	1377.0	1019.4
62.03	1383.0	1019.4
62.04	1368.0	1019.5
62.05	1356.0	1019.5
62.06	1329.0	1019.6
62.07	1264.0	1019.6
62.08	1285.0	1019.7
62.09	1282.0	1019.7
62.1	1280.0	1019.8
62.11	1301.0	1019.8
62.12	1312.0	1019.9
62.13	1262.0	1019.9
62.14	1283.0	1020.0
62.15	1303.0	1020.0
62.16	1285.0	1020.0
62.17	1292.0	1020.1
62.18	1295.0	1020.1
62.19	1302.0	1020.2
62.2	1333.0	1020.2
62.21	1321.0	1020.3
62.22	1293.0	1020.3
62.23	1266.0	1020.4
62.24	1318.0	1020.4
62.25	1260.0	1020.5
62.26	1256.0	1020.5
62.27	1293.0	1020.6
62.28	1248.0	1020.6
62.29	1257.0	1020.7
62.3	1282.0	1020.7
62.31	1257.0	1020.7
62.32	1252.0	1020.8
62.33	1260.0	1020.8
62.34	1291.0	1020.9
62.35	1299.0	1020.9
62.36	1323.0	1021.0
62.37	1332.0	1021.0
62.38	1307.0	1021.1
62.39	1278.0	1021.1
62.4	1285.0	1021.1
62.41	1314.0	1021.2
62.42	1301.0	1021.2
62.43	1279.0	1021.3
62.44	1257.0	1021.3
62.45	1302.0	1021.4
62.46	1293.0	1021.4
62.47	1288.0	1021.4
62.48	1308.0	1021.5
62.49	1333.0	1021.5
62.5	1288.0	1021.6
62.51	1281.0	1021.6
62.52	1265.0	1021.7
62.53	1308.0	1021.7
62.54	1326.0	1021.7
62.55	1304.0	1021.8
62.56	1312.0	1021.8
62.57	1312.0	1021.9
62.58	1282.0	1021.9
62.59	1310.0	1021.9
62.6	1310.0	1022.0
62.61	1291.0	1022.0
62.62	1269.0	1022.1
62.63	1281.0	1022.1
62.64	1285.0	1022.1
62.65	1338.0	1022.2
62.66	1314.0	1022.2
62.67	1304.0	1022.2
62.68	1378.0	1022.3
62.69	1334.0	1022.3
62.7	1328.0	1022.4
62.71	1288.0	1022.4
62.72	1300.0	1022.4
62.73	1293.0	1022.5
62.74	1287.0	1022.5
62.75	1307.0	1022.5
62.76	1291.0	1022.6
62.77	1277.0	1022.6
62.78	1264.0	1022.7
62.79	1262.0	1022.7
62.8	1275.0	1022.7
62.81	1295.0	1022.8
62.82	1279.0	1022.8
62.83	1272.0	1022.8
62.84	1332.0	1022.9
62.85	1305.0	1022.9
62.86	1288.0	1022.9
62.87	1299.0	1023.0
62.88	1248.0	1023.0
62.89	1285.0	1023.0
62.9	1290.0	1023.1
62.91	1267.0	1023.1
62.92	1286.0	1023.1
62.93	1270.0	1023.2
62.94	1253.0	1023.2
62.95	1232.0	1023.2
62.96	1272.0	1023.3
62.97	1264.0	1023.3
62.98	1314.0	1023.3
62.99	1334.0	1023.4
63.0	1280.0	1023.4
63.01	1259.0	1023.4
63.02	1271.0	1023.5
63.03	1294.0	1023.5
63.04	1265.0	1023.5
63.05	1244.0	1023.6
63.06	1244.0	1023.6
63.07	1215.0	1023.6
63.08	1223.0	1023.6
63.09	1234.0	1023.7
63.1	1244.0	1023.7
63.11	1234.0	1023.7
63.12	1198.0	1023.8
63.13	1220.0	1023.8
63.14	1242.0	1023.8
63.15	1266.0	1023.8
63.16	1264.0	1023.9
63.17	1264.0	1023.9
63.18	1231.0	1023.9
63.19	1244.0	1024.0
63.2	1249.0	1024.0
63.21	1222.0	1024.0
63.22	1220.0	1024.0
63.23	1233.0	1024.1
63.24	1189.0	1024.1
63.25	1163.0	1024.1
63.26	1184.0	1024.1
63.27	1190.0	1024.2
63.28	1193.0	1024.2
63.29	1164.0	1024.2
63.3	1189.0	1024.2
63.31	1197.0	1024.3
63.32	1177.0	1024.3
63.33	1150.0	1024.3
63.34	1148.0	1024.3
63.35	1174.0	1024.4
63.36	1190.0	1024.4
63.37	1130.0	1024.4
63.38	1144.0	1024.4
63.39	1111.0	1024.5
63.4	1123.0	1024.5
63.41	1158.0	1024.5
63.42	1128.0	1024.5
63.43	1116.0	1024.6
63.44	1120.0	1024.6
63.45	1102.0	1024.6
63.46	1085.0	1024.6
63.47	1115.0	1024.6
63.48	1102.0	1024.7
63.49	1111.0	1024.7
63.5	1117.0	1024.7
63.51	1150.0	1024.7
63.52	1135.0	1024.7
63.53	1075.0	1024.8
63.54	1064.0	1024.8
63.55	1059.0	1024.8
63.56	1083.0	1024.8
63.57	1084.0	1024.8
63.58	1095.0	1024.9
63.59	1088.0	1024.9
63.6	1099.0	1024.9
63.61	1078.0	1024.9
63.62	1052.0	1024.9
63.63	1094.0	1024.9
63.64	1085.0	1025.0
63.65	1065.0	1025.0
63.66	1084.0	1025.0
63.67	1073.0	1025.0
63.68	1064.0	1025.0
63.69	1087.0	1025.0
63.7	1094.0	1025.1
63.71	1092.0	1025.1
63.72	1098.0	1025.1
63.73	1100.0	1025.1
63.74	1127.0	1025.1
63.75	1134.0	1025.1
63.76	1104.0	1025.2
63.77	1148.0	1025.2
63.78	1126.0	1025.2
63.79	1130.0	1025.2
63.8	1138.0	1025.2
63.81	1098.0	1025.2
63.82	1113.0	1025.2
63.83	1139.0	1025.2
63.84	1126.0	1025.3
63.85	1142.0	1025.3
63.86	1156.0	1025.3
63.87	1171.0	1025.3
63.88	1158.0	1025.3
63.89	1146.0	1025.3
63.9	1161.0	1025.3
63.91	1172.0	1025.3
63.92	1218.0	1025.4
63.93	1186.0	1025.4
63.94	1220.0	1025.4
63.95	1221.0	1025.4
63.96	1185.0	1025.4
63.97	1260.0	1025.4
63.98	1251.0	1025.4
63.99	1237.0	1025.4
64.0	1278.0	1025.4
64.01	1273.0	1025.4
64.02	1300.0	1025.4
64.03	1331.0	1025.5
64.04	1280.0	1025.5
64.05	1293.0	1025.5
64.06	1300.0	1025.5
64.07	1295.0	1025.5
64.08	1328.0	1025.5
64.09	1328.0	1025.5
64.1	1317.0	1025.5
64.11	1292.0	1025.5
64.12	1337.0	1025.5
64.13	1292.0	1025.5
64.14	1299.0	1025.5
64.15	1258.0	1025.5
64.16	1244.0	1025.5
64.17	1237.0	1025.5
64.18	1267.0	1025.5
64.19	1238.0	1025.5
64.2	1214.0	1025.6
64.21	1207.0	1025.6
64.22	1222.0	1025.6
64.23	1270.0	1025.6
64.24	1262.0	1025.6
64.25	1259.0	1025.6
64.26	1220.0	1025.6
64.27	1241.0	1025.6
64.28	1250.0	1025.6
64.29	1238.0	1025.6
64.3	1192.0	1025.6
64.31	1165.0	1025.6
64.32	1153.0	1025.6
64.33	1159.0	1025.6
64.34	1176.0	1025.6
64.35	1196.0	1025.6
64.36	1184.0	1025.6
64.37	1157.0	1025.6
64.38	1121.0	1025.6
64.39	1121.0	1025.6
64.4	1120.0	1025.6
64.41	1107.0	1025.6
64.42	1083.0	1025.6
64.43	1066.0	1025.6
64.44	1131.0	1025.6
64.45	1129.0	1025.6
64.46	1141.0	1025.6
64.47	1074.0	1025.6
64.48	1046.0	1025.6
64.49	1098.0	1025.6
64.5	1120.0	1025.5
64.51	1078.0	1025.5
64.52	1059.0	1025.5
64.53	1085.0	1025.5
64.54	1083.0	1025.5
64.55	1046.0	1025.5
64.56	1062.0	1025.5
64.57	1112.0	1025.5
64.58	1124.0	1025.5
64.59	1094.0	1025.5
64.6	1040.0	1025.5
64.61	1032.0	1025.5
64.62	1062.0	1025.5
64.63	1073.0	1025.5
64.64	1084.0	1025.5
64.65	1083.0	1025.5
64.66	1074.0	1025.4
64.67	1067.0	1025.4
64.68	1079.0	1025.4
64.69	1081.0	1025.4
64.7	1080.0	1025.4
64.71	1129.0	1025.4
64.72	1145.0	1025.4
64.73	1153.0	1025.4
64.74	1166.0	1025.4
64.75	1173.0	1025.4
64.76	1186.0	1025.4
64.77	1166.0	1025.3
64.78	1219.0	1025.3
64.79	1244.0	1025.3
64.8	1205.0	1025.3
64.81	1238.0	1025.3
64.82	1227.0	1025.3
64.83	1267.0	1025.3
64.84	1294.0	1025.3
64.85	1238.0	1025.2
64.86	1204.0	1025.2
64.87	1223.0	1025.2
64.88	1179.0	1025.2
64.89	1194.0	1025.2
64.9	1177.0	1025.2
64.91	1130.0	1025.2
64.92	1148.0	1025.1
64.93	1174.0	1025.1
64.94	1168.0	1025.1
64.95	1193.0	1025.1
64.96	1156.0	1025.1
64.97	1160.0	1025.1
64.98	1181.0	1025.0
64.99	1161.0	1025.0
65.0	1161.0	1025.0
65.01	1181.0	1025.0
65.02	1165.0	1025.0
65.03	1157.0	1025.0
65.04	1146.0	1024.9
65.05	1151.0	1024.9
65.06	1136.0	1024.9
65.07	1134.0	1024.9
65.08	1105.0	1024.9
65.09	1067.0	1024.8
65.1	1061.0	1024.8
65.11	1070.0	1024.8
65.12	1091.0	1024.8
65.13	1070.0	1024.8
65.14	1060.0	1024.7
65.15	1087.0	1024.7
65.16	1093.0	1024.7
65.17	1108.0	1024.7
65.18	1077.0	1024.6
65.19	1072.0	1024.6
65.2	1070.0	1024.6
65.21	1103.0	1024.6
65.22	1070.0	1024.6
65.23	1080.0	1024.5
65.24	1049.0	1024.5
65.25	1070.0	1024.5
65.26	1066.0	1024.5
65.27	1113.0	1024.4
65.28	1094.0	1024.4
65.29	1046.0	1024.4
65.3	1060.0	1024.4
65.31	1066.0	1024.3
65.32	1052.0	1024.3
65.33	1063.0	1024.3
65.34	1074.0	1024.2
65.35	1078.0	1024.2
65.36	1075.0	1024.2
65.37	1106.0	1024.2
65.38	1064.0	1024.1
65.39	1053.0	1024.1
65.4	1090.0	1024.1
65.41	1186.0	1024.1
65.42	1158.0	1024.0
65.43	1058.0	1024.0
65.44	1130.0	1024.0
65.45	1142.0	1023.9
65.46	1117.0	1023.9
65.47	1181.0	1023.9
65.48	1164.0	1023.8
65.49	1166.0	1023.8
65.5	1176.0	1023.8
65.51	1179.0	1023.7
65.52	1216.0	1023.7
65.53	1194.0	1023.7
65.54	1228.0	1023.6
65.55	1250.0	1023.6
65.56	1268.0	1023.6
65.57	1303.0	1023.5
65.58	1336.0	1023.5
65.59	1384.0	1023.5
65.6	1400.0	1023.4
65.61	1355.0	1023.4
65.62	1380.0	1023.4
65.63	1442.0	1023.3
65.64	1495.0	1023.3
65.65	1490.0	1023.3
65.66	1501.0	1023.2
65.67	1559.0	1023.2
65.68	1589.0	1023.2
65.69	1641.0	1023.1
65.7	1703.0	1023.1
65.71	1680.0	1023.0
65.72	1661.0	1023.0
65.73	1753.0	1023.0
65.74	1850.0	1022.9
65.75	1845.0	1022.9
65.76	1768.0	1022.8
65.77	1776.0	1022.8
65.78	1811.0	1022.8
65.79	1836.0	1022.7
65.8	1852.0	1022.7
65.81	1805.0	1022.6
65.82	1813.0	1022.6
65.83	1791.0	1022.6
65.84	1781.0	1022.5
65.85	1752.0	1022.5
65.86	1721.0	1022.4
65.87	1740.0	1022.4
65.88	1725.0	1022.3
65.89	1667.0	1022.3
65.9	1676.0	1022.3
65.91	1685.0	1022.2
65.92	1585.0	1022.2
65.93	1585.0	1022.1
65.94	1619.0	1022.1
65.95	1582.0	1022.0
65.96	1515.0	1022.0
65.97	1550.0	1021.9
65.98	1526.0	1021.9
65.99	1463.0	1021.9
66.0	1404.0	1021.8
66.01	1389.0	1021.8
66.02	1424.0	1021.7
66.03	1416.0	1021.7
66.04	1330.0	1021.6
66.05	1352.0	1021.6
66.06	1339.0	1021.5
66.07	1308.0	1021.5
66.08	1306.0	1021.4
66.09	1288.0	1021.4
66.1	1285.0	1021.3
66.11	1216.0	1021.3
66.12	1204.0	1021.2
66.13	1198.0	1021.2
66.14	1185.0	1021.1
66.15	1128.0	1021.1
66.16	1153.0	1021.0
66.17	1176.0	1021.0
66.18	1099.0	1020.9
66.19	1115.0	1020.9
66.2	1069.0	1020.8
66.21	1128.0	1020.8
66.22	1180.0	1020.7
66.23	1145.0	1020.7
66.24	1113.0	1020.6
66.25	1104.0	1020.5
66.26	1087.0	1020.5
66.27	1115.0	1020.4
66.28	1137.0	1020.4
66.29	1091.0	1020.3
66.3	1092.0	1020.3
66.31	1071.0	1020.2
66.32	1068.0	1020.2
66.33	1096.0	1020.1
66.34	1110.0	1020.0
66.35	1116.0	1020.0
66.36	1132.0	1019.9
66.37	1117.0	1019.9
66.38	1118.0	1019.8
66.39	1101.0	1019.8
66.4	1120.0	1019.7
66.41	1139.0	1019.6
66.42	1138.0	1019.6
66.43	1079.0	1019.5
66.44	1062.0	1019.5
66.45	1084.0	1019.4
66.46	1119.0	1019.3
66.47	1124.0	1019.3
66.48	1089.0	1019.2
66.49	1071.0	1019.2
66.5	1107.0	1019.1
66.51	1141.0	1019.0
66.52	1147.0	1019.0
66.53	1168.0	1018.9
66.54	1212.0	1018.9
66.55	1221.0	1018.8
66.56	1175.0	1018.7
66.57	1187.0	1018.7
66.58	1209.0	1018.6
66.59	1217.0	1018.5
66.6	1236.0	1018.5
66.61	1233.0	1018.4
66.62	1268.0	1018.4
66.63	1230.0	1018.3
66.64	1146.0	1018.2
66.65	1172.0	1018.2
66.66	1131.0	1018.1
66.67	1123.0	1018.0
66.68	1152.0	1018.0
66.69	1151.0	1017.9
66.7	1117.0	1017.8
66.71	1151.0	1017.8
66.72	1130.0	1017.7
66.73	1142.0	1017.6
66.74	1113.0	1017.6
66.75	1132.0	1017.5
66.76	1119.0	1017.4
66.77	1141.0	1017.4
66.78	1156.0	1017.3
66.79	1097.0	1017.2
66.8	1142.0	1017.2
66.81	1123.0	1017.1
66.82	1110.0	1017.0
66.83	1093.0	1016.9
66.84	1072.0	1016.9
66.85	1048.0	1016.8
66.86	1036.0	1016.7
66.87	1072.0	1016.7
66.88	1038.0	1016.6
66.89	1025.0	1016.5
66.9	1024.0	1016.5
66.91	1013.0	1016.4
66.92	1001.0	1016.3
66.93	1023.0	1016.2
66.94	1014.0	1016.2
66.95	994.0	1016.1
66.96	1033.0	1016.0
66.97	1006.0	1016.0
66.98	1068.0	1015.9
66.99	1051.0	1015.8
67.0	995.0	1015.7
67.01	1010.0	1015.7
67.02	1055.0	1015.6
67.03	1027.0	1015.5
67.04	999.0	1015.4
67.05	994.0	1015.4
67.06	1027.0	1015.3
67.07	1025.0	1015.2
67.08	996.0	1015.1
67.09	1013.0	1015.1
67.1	994.0	1015.0
67.11	962.0	1014.9
67.12	1025.0	1014.8
67.13	998.0	1014.8
67.14	1032.0	1014.7
67.15	1028.0	1014.6
67.16	1078.0	1014.5
67.17	1024.0	1014.4
67.18	1032.0	1014.4
67.19	1049.0	1014.3
67.2	1032.0	1014.2
67.21	1059.0	1014.1
67.22	1049.0	1014.1
67.23	1030.0	1014.0
67.24	1071.0	1013.9
67.25	1057.0	1013.8
67.26	1074.0	1013.7
67.27	1091.0	1013.7
67.28	1105.0	1013.6
67.29	1084.0	1013.5
67.3	1028.0	1013.4
67.31	1055.0	1013.3
67.32	1100.0	1013.3
67.33	1136.0	1013.2
67.34	1162.0	1013.1
67.35	1141.0	1013.0
67.36	1181.0	1012.9
67.37	1131.0	1012.8
67.38	1155.0	1012.8
67.39	1185.0	1012.7
67.4	1228.0	1012.6
67.41	1231.0	1012.5
67.42	1237.0	1012.4
67.43	1180.0	1012.3
67.44	1172.0	1012.3
67.45	1155.0	1012.2
67.46	1199.0	1012.1
67.47	1170.0	1012.0
67.48	1124.0	1011.9
67.49	1179.0	1011.8
67.5	1174.0	1011.8
67.51	1149.0	1011.7
67.52	1135.0	1011.6
67.53	1162.0	1011.5
67.54	1204.0	1011.4
67.55	1177.0	1011.3
67.56	1173.0	1011.2
67.57	1147.0	1011.2
67.58	1131.0	1011.1
67.59	1174.0	1011.0
67.6	1181.0	1010.9
67.61	1157.0	1010.8
67.62	1137.0	1010.7
67.63	1163.0	1010.6
67.64	1126.0	1010.5
67.65	1138.0	1010.5
67.66	1148.0	1010.4
67.67	1142.0	1010.3
67.68	1142.0	1010.2
67.69	1126.0	1010.1
67.7	1091.0	1010.0
67.71	1075.0	1009.9
67.72	1067.0	1009.8
67.73	1095.0	1009.7
67.74	1084.0	1009.6
67.75	1064.0	1009.6
67.76	1057.0	1009.5
67.77	1045.0	1009.4
67.78	1059.0	1009.3
67.79	1047.0	1009.2
67.8	1023.0	1009.1
67.81	1003.0	1009.0
67.82	1008.0	1008.9
67.83	1028.0	1008.8
67.84	1048.0	1008.7
67.85	1050.0	1008.6
67.86	1064.0	1008.6
67.87	1072.0	1008.5
67.88	1026.0	1008.4
67.89	1020.0	1008.3
67.9	1012.0	1008.2
67.91	1016.0	1008.1
67.92	1027.0	1008.0
67.93	1062.0	1007.9
67.94	1047.0	1007.8
67.95	1033.0	1007.7
67.96	1057.0	1007.6
67.97	1030.0	1007.5
67.98	984.0	1007.4
67.99	1009.0	1007.3
68.0	1037.0	1007.2
68.01	1009.0	1007.1
68.02	1022.0	1007.0
68.03	1016.0	1007.0
68.04	1000.0	1006.9
68.05	1005.0	1006.8
68.06	1005.0	1006.7
68.07	994.0	1006.6
68.08	966.0	1006.5
68.09	1010.0	1006.4
68.1	1061.0	1006.3
68.11	1056.0	1006.2
68.12	1001.0	1006.1
68.13	1014.0	1006.0
68.14	1068.0	1005.9
68.15	1048.0	1005.8
68.16	1016.0	1005.7
68.17	968.0	1005.6
68.18	990.0	1005.5
68.19	979.0	1005.4
68.2	997.0	1005.3
68.21	999.0	1005.2
68.22	994.0	1005.1
68.23	1022.0	1005.0
68.24	1040.0	1004.9
68.25	1038.0	1004.8
68.26	1036.0	1004.7
68.27	1023.0	1004.6
68.28	1037.0	1004.5
68.29	1042.0	1004.4
68.3	1036.0	1004.3
68.31	1026.0	1004.2
68.32	1030.0	1004.1
68.33	1041.0	1004.0
68.34	1059.0	1003.9
68.35	1046.0	1003.8
68.36	1057.0	1003.7
68.37	1024.0	1003.6
68.38	1034.0	1003.5
68.39	1042.0	1003.4
68.4	1033.0	1003.3
68.41	1021.0	1003.2
68.42	1034.0	1003.1
68.43	1007.0	1003.0
68.44	998.0	1002.9
68.45	1014.0	1002.8
68.46	1026.0	1002.7
68.47	1045.0	1002.6
68.48	1051.0	1002.5
68.49	1025.0	1002.3
68.5	1066.0	1002.2
68.51	1077.0	1002.1
68.52	1101.0	1002.0
68.53	1086.0	1001.9
68.54	1082.0	1001.8
68.55	1066.0	1001.7
68.56	1049.0	1001.6
68.57	1061.0	1001.5
68.58	1046.0	1001.4
68.59	1030.0	1001.3
68.6	1053.0	1001.2
68.61	1067.0	1001.1
68.62	1049.0	1001.0
68.63	1053.0	1000.9
68.64	1085.0	1000.8
68.65	1060.0	1000.7
68.66	1059.0	1000.6
68.67	1090.0	1000.5
68.68	1093.0	1000.3
68.69	1102.0	1000.2
68.7	1153.0	1000.1
68.71	1109.0	1000.0
68.72	1085.0	999.9
68.73	1116.0	999.8
68.74	1111.0	999.7
68.75	1096.0	999.6
68.76	1141.0	999.5
68.77	1143.0	999.4
68.78	1103.0	999.3
68.79	1108.0	999.2
68.8	1183.0	999.0
68.81	1153.0	998.9
68.82	1143.0	998.8
68.83	1145.0	998.7
68.84	1134.0	998.6
68.85	1136.0	998.5
68.86	1137.0	998.4
68.87	1143.0	998.3
68.88	1134.0	998.2
68.89	1155.0	998.1
68.9	1132.0	998.0
68.91	1145.0	997.8
68.92	1158.0	997.7
68.93	1202.0	997.6
68.94	1208.0	997.5
68.95	1228.0	997.4
68.96	1192.0	997.3
68.97	1182.0	997.2
68.98	1213.0	997.1
68.99	1257.0	997.0
69.0	1226.0	996.8
69.01	1253.0	996.7
69.02	1212.0	996.6
69.03	1219.0	996.5
69.04	1204.0	996.4
69.05	1178.0	996.3
69.06	1172.0	996.2
69.07	1225.0	996.1
69.08	1235.0	995.9
69.09	1174.0	995.8
69.1	1192.0	995.7
69.11	1200.0	995.6
69.12	1210.0	995.5
69.13	1188.0	995.4
69.14	1201.0	995.3
69.15	1209.0	995.2
69.16	1176.0	995.0
69.17	1148.0	994.9
69.18	1173.0	994.8
69.19	1218.0	994.7
69.2	1179.0	994.6
69.21	1131.0	994.5
69.22	1137.0	994.4
69.23	1172.0	994.2
69.24	1146.0	994.1
69.25	1145.0	994.0
69.26	1163.0	993.9
69.27	1169.0	993.8
69.28	1135.0	993.7
69.29	1149.0	993.5
69.3	1124.0	993.4
69.31	1135.0	993.3
69.32	1132.0	993.2
69.33	1127.0	993.1
69.34	1113.0	993.0
69.35	1128.0	992.9
69.36	1122.0	992.7
69.37	1114.0	992.6
69.38	1106.0	992.5
69.39	1100.0	992.4
69.4	1121.0	992.3
69.41	1093.0	992.2
69.42	1116.0	992.0
69.43	1073.0	991.9
69.44	1047.0	991.8
69.45	1085.0	991.7
69.46	1078.0	991.6
69.47	1115.0	991.5
69.48	1115.0	991.3
69.49	1111.0	991.2
69.5	1102.0	991.1
69.51	1096.0	991.0
69.52	1086.0	990.9
69.53	1087.0	990.7
69.54	1058.0	990.6
69.55	1082.0	990.5
69.56	1113.0	990.4
69.57	1136.0	990.3
69.58	1109.0	990.2
69.59	1089.0	990.0
69.6	1101.0	989.9
69.61	1069.0	989.8
69.62	1089.0	989.7
69.63	1096.0	989.6
69.64	1103.0	989.4
69.65	1098.0	989.3
69.66	1101.0	989.2
69.67	1111.0	989.1
69.68	1050.0	989.0
69.69	1083.0	988.8
69.7	1037.0	988.7
69.71	1037.0	988.6
69.72	1064.0	988.5
69.73	1062.0	988.4
69.74	1106.0	988.2
69.75	1099.0	988.1
69.76	1091.0	988.0
69.77	1096.0	987.9
69.78	1120.0	987.8
69.79	1093.0	987.6
69.8	1057.0	987.5
69.81	1084.0	987.4
69.82	1080.0	987.3
69.83	1083.0	987.2
69.84	1102.0	987.0
69.85	1088.0	986.9
69.86	1083.0	986.8
69.87	1054.0	986.7
69.88	1030.0	986.5
69.89	1073.0	986.4
69.9	1089.0	986.3
69.91	1108.0	986.2
69.92	1084.0	986.1
69.93	1091.0	985.9
69.94	1112.0	985.8
69.95	1091.0	985.7
69.96	1063.0	985.6
69.97	1068.0	985.4
69.98	1059.0	985.3
69.99	1079.0	985.2
70.0	1093.0	985.1
70.01	1079.0	985.0
70.02	1079.0	984.8
70.03	1114.0	984.7
70.04	1085.0	984.6
70.05	1063.0	984.5
70.06	1128.0	984.3
70.07	1161.0	984.2
70.08	1129.0	984.1
70.09	1082.0	984.0
70.1	1100.0	983.8
70.11	1156.0	983.7
70.12	1127.0	983.6
70.13	1155.0	983.5
70.14	1172.0	983.3
70.15	1162.0	983.2
70.16	1154.0	983.1
70.17	1095.0	983.0
70.18	1079.0	982.9
70.19	1075.0	982.7
70.2	1113.0	982.6
70.21	1126.0	982.5
70.22	1129.0	982.4
70.23	1131.0	982.2
70.24	1159.0	982.1
70.25	1132.0	982.0
70.26	1122.0	981.9
70.27	1137.0	981.7
70.28	1125.0	981.6
70.29	1110.0	981.5
70.3	1063.0	981.4
70.31	1084.0	981.2
70.32	1112.0	981.1
70.33	1091.0	981.0
70.34	1096.0	980.9
70.35	1074.0	980.7
70.36	1107.0	980.6
70.37	1113.0	980.5
70.38	1090.0	980.4
70.39	1114.0	980.2
70.4	1119.0	980.1
70.41	1062.0	980.0
70.42	1035.0	979.8
70.43	1072.0	979.7
70.44	1105.0	979.6
70.45	1120.0	979.5
70.46	1063.0	979.3
70.47	1059.0	979.2
70.48	1089.0	979.1
70.49	1097.0	979.0
70.5	1086.0	978.8
70.51	1075.0	978.7
70.52	1081.0	978.6
70.53	1113.0	978.5
70.54	1069.0	978.3
70.55	1103.0	978.2
70.56	1087.0	978.1
70.57	1077.0	978.0
70.58	1054.0	977.8
70.59	1080.0	977.7
70.6	1102.0	977.6
70.61	1114.0	977.4
70.62	1084.0	977.3
70.63	1066.0	977.2
70.64	1066.0	977.1
70.65	1052.0	976.9
70.66	1046.0	976.8
70.67	1073.0	976.7
70.68	1100.0	976.6
70.69	1067.0	976.4
70.7	1053.0	976.3
70.71	1083.0	976.2
70.72	1057.0	976.0
70.73	1055.0	975.9
70.74	1015.0	975.8
70.75	1018.0	975.7
70.76	1067.0	975.5
70.77	1076.0	975.4
70.78	1024.0	975.3
70.79	1056.0	975.1
70.8	1036.0	975.0
70.81	1014.0	974.9
70.82	1048.0	974.8
70.83	1062.0	974.6
70.84	1019.0	974.5
70.85	997.0	974.4
70.86	1039.0	974.3
70.87	1057.0	974.1
70.88	1030.0	974.0
70.89	1040.0	973.9
70.9	1050.0	973.7
70.91	1023.0	973.6
70.92	1053.0	973.5
70.93	1031.0	973.4
70.94	1049.0	973.2
70.95	1010.0	973.1
70.96	1061.0	973.0
70.97	1011.0	972.8
70.98	1028.0	972.7
70.99	1061.0	972.6
71.0	1019.0	972.5
71.01	1015.0	972.3
71.02	1004.0	972.2
71.03	991.0	972.1
71.04	977.0	971.9
71.05	965.0	971.8
71.06	972.0	971.7
71.07	961.0	971.5
71.08	972.0	971.4
71.09	991.0	971.3
71.1	1006.0	971.2
71.11	1009.0	971.0
71.12	994.0	970.9
71.13	971.0	970.8
71.14	972.0	970.6
71.15	941.0	970.5
71.16	965.0	970.4
71.17	975.0	970.3
71.18	998.0	970.1
71.19	954.0	970.0
71.2	998.0	969.9
71.21	1007.0	969.7
71.22	1009.0	969.6
71.23	1036.0	969.5
71.24	1007.0	969.4
71.25	984.0	969.2
71.26	997.0	969.1
71.27	985.0	969.0
71.28	972.0	968.8
71.29	972.0	968.7
71.3	1007.0	968.6
71.31	1011.0	968.4
71.32	1012.0	968.3
71.33	1022.0	968.2
71.34	980.0	968.1
71.35	1004.0	967.9
71.36	945.0	967.8
71.37	962.0	967.7
71.38	998.0	967.5
71.39	974.0	967.4
71.4	947.0	967.3
71.41	966.0	967.1
71.42	970.0	967.0
71.43	937.0	966.9
71.44	1000.0	966.8
71.45	991.0	966.6
71.46	975.0	966.5
71.47	976.0	966.4
71.48	987.0	966.2
71.49	1010.0	966.1
71.5	993.0	966.0
71.51	985.0	965.9
71.52	979.0	965.7
71.53	960.0	965.6
71.54	950.0	965.5
71.55	996.0	965.3
71.56	996.0	965.2
71.57	976.0	965.1
71.58	936.0	964.9
71.59	939.0	964.8
71.6	933.0	964.7
71.61	953.0	964.6
71.62	973.0	964.4
71.63	967.0	964.3
71.64	980.0	964.2
71.65	977.0	964.0
71.66	965.0	963.9
71.67	984.0	963.8
71.68	1030.0	963.6
71.69	970.0	963.5
71.7	944.0	963.4
71.71	948.0	963.3
71.72	964.0	963.1
71.73	978.0	963.0
71.74	985.0	962.9
71.75	964.0	962.7
71.76	950.0	962.6
71.77	966.0	962.5
71.78	991.0	962.3
71.79	1014.0	962.2
71.8	969.0	962.1
71.81	976.0	962.0
71.82	968.0	961.8
71.83	973.0	961.7
71.84	986.0	961.6
71.85	994.0	961.4
71.86	978.0	961.3
71.87	997.0	961.2
71.88	1015.0	961.0
71.89	995.0	960.9
71.9	973.0	960.8
71.91	978.0	960.7
71.92	975.0	960.5
71.93	987.0	960.4
71.94	971.0	960.3
71.95	964.0	960.1
71.96	973.0	960.0
71.97	968.0	959.9
71.98	965.0	959.8
71.99	984.0	959.6
72.0	975.0	959.5
72.01	959.0	959.4
72.02	1010.0	959.2
72.03	1006.0	959.1
72.04	1023.0	959.0
72.05	999.0	958.8
72.06	999.0	958.7
72.07	992.0	958.6
72.08	1016.0	958.5
72.09	1001.0	958.3
72.1	973.0	958.2
72.11	980.0	958.1
72.12	1023.0	957.9
72.13	1068.0	957.8
72.14	1034.0	957.7
72.15	1027.0	957.6
72.16	1029.0	957.4
72.17	1058.0	957.3
72.18	1066.0	957.2
72.19	1037.0	957.0
72.2	1097.0	956.9
72.21	1094.0	956.8
72.22	1096.0	956.6
72.23	1102.0	956.5
72.24	1136.0	956.4
72.25	1153.0	956.3
72.26	1124.0	956.1
72.27	1125.0	956.0
72.28	1111.0	955.9
72.29	1083.0	955.7
72.3	1049.0	955.6
72.31	1043.0	955.5
72.32	1091.0	955.4
72.33	1096.0	955.2
72.34	1114.0	955.1
72.35	1104.0	955.0
72.36	1067.0	954.8
72.37	1060.0	954.7
72.38	1081.0	954.6
72.39	1077.0	954.5
72.4	1074.0	954.3
72.41	1145.0	954.2
72.42	1136.0	954.1
72.43	1103.0	953.9
72.44	1112.0	953.8
72.45	1076.0	953.7
72.46	1115.0	953.6
72.47	1137.0	953.4
72.48	1136.0	953.3
72.49	1120.0	953.2
72.5	1104.0	953.1
72.51	1065.0	952.9
72.52	1079.0	952.8
72.53	1117.0	952.7
72.54	1095.0	952.5
72.55	1110.0	952.4
72.56	1109.0	952.3
72.57	1084.0	952.2
72.58	1085.0	952.0
72.59	1059.0	951.9
72.6	1059.0	951.8
72.61	1078.0	951.6
72.62	1065.0	951.5
72.63	1044.0	951.4
72.64	1029.0	951.3
72.65	1041.0	951.1
72.66	1040.0	951.0
72.67	1036.0	950.9
72.68	1011.0	950.8
72.69	1027.0	950.6
72.7	1029.0	950.5
72.71	1015.0	950.4
72.72	1032.0	950.3
72.73	1034.0	950.1
72.74	1042.0	950.0
72.75	1016.0	949.9
72.76	991.0	949.7
72.77	977.0	949.6
72.78	997.0	949.5
72.79	1002.0	949.4
72.8	984.0	949.2
72.81	999.0	949.1
72.82	996.0	949.0
72.83	1005.0	948.9
72.84	1003.0	948.7
72.85	955.0	948.6
72.86	955.0	948.5
72.87	983.0	948.4
72.88	959.0	948.2
72.89	987.0	948.1
72.9	967.0	948.0
72.91	987.0	947.9
72.92	956.0	947.7
72.93	961.0	947.6
72.94	978.0	947.5
72.95	962.0	947.4
72.96	955.0	947.2
72.97	961.0	947.1
72.98	981.0	947.0
72.99	955.0	946.8
73.0	935.0	946.7
73.01	943.0	946.6
73.02	976.0	946.5
73.03	991.0	946.3
73.04	931.0	946.2
73.05	947.0	946.1
73.06	947.0	946.0
73.07	937.0	945.9
73.08	1006.0	945.7
73.09	979.0	945.6
73.1	959.0	945.5
73.11	981.0	945.4
73.12	984.0	945.2
73.13	968.0	945.1
73.14	1007.0	945.0
73.15	987.0	944.9
73.16	952.0	944.7
73.17	934.0	944.6
73.18	950.0	944.5
73.19	962.0	944.4
73.2	956.0	944.2
73.21	966.0	944.1
73.22	971.0	944.0
73.23	958.0	943.9
73.24	992.0	943.7
73.25	978.0	943.6
73.26	979.0	943.5
73.27	984.0	943.4
73.28	980.0	943.3
73.29	990.0	943.1
73.3	1012.0	943.0
73.31	988.0	942.9
73.32	977.0	942.8
73.33	943.0	942.6
73.34	982.0	942.5
73.35	1006.0	942.4
73.36	983.0	942.3
73.37	972.0	942.2
73.38	973.0	942.0
73.39	970.0	941.9
73.4	957.0	941.8
73.41	952.0	941.7
73.42	930.0	941.5
73.43	961.0	941.4
73.44	996.0	941.3
73.45	956.0	941.2
73.46	883.0	941.1
73.47	939.0	940.9
73.48	967.0	940.8
73.49	982.0	940.7
73.5	987.0	940.6
73.51	994.0	940.5
73.52	996.0	940.3
73.53	984.0	940.2
73.54	972.0	940.1
73.55	957.0	940.0
73.56	962.0	939.8
73.57	976.0	939.7
73.58	921.0	939.6
73.59	959.0	939.5
73.6	996.0	939.4
73.61	977.0	939.2
73.62	970.0	939.1
73.63	1019.0	939.0
73.64	995.0	938.9
73.65	989.0	938.8
73.66	968.0	938.7
73.67	999.0	938.5
73.68	987.0	938.4
73.69	944.0	938.3
73.7	977.0	938.2
73.71	1000.0	938.1
73.72	1020.0	937.9
73.73	996.0	937.8
73.74	978.0	937.7
73.75	1023.0	937.6
73.76	1024.0	937.5
73.77	996.0	937.3
73.78	1024.0	937.2
73.79	1021.0	937.1
73.8	1026.0	937.0
73.81	1027.0	936.9
73.82	1051.0	936.8
73.83	1062.0	936.6
73.84	1057.0	936.5
73.85	1065.0	936.4
73.86	1055.0	936.3
73.87	1015.0	936.2
73.88	1023.0	936.1
73.89	1064.0	935.9
73.9	1086.0	935.8
73.91	1116.0	935.7
73.92	1096.0	935.6
73.93	1063.0	935.5
73.94	1100.0	935.4
73.95	1088.0	935.2
73.96	1063.0	935.1
73.97	1085.0	935.0
73.98	1021.0	934.9
73.99	1043.0	934.8
74.0	1084.0	934.7
74.01	1026.0	934.5
74.02	1011.0	934.4
74.03	1063.0	934.3
74.04	1053.0	934.2
74.05	1052.0	934.1
74.06	1056.0	934.0
74.07	1064.0	933.8
74.08	1057.0	933.7
74.09	1034.0	933.6
74.1	1042.0	933.5
74.11	1056.0	933.4
74.12	1064.0	933.3
74.13	1045.0	933.2
74.14	1029.0	933.0
74.15	1003.0	932.9
74.16	1007.0	932.8
74.17	1026.0	932.7
74.18	1022.0	932.6
74.19	1031.0	932.5
74.2	1035.0	932.4
74.21	1041.0	932.2
74.22	1039.0	932.1
74.23	1024.0	932.0
74.24	1046.0	931.9
74.25	1046.0	931.8
74.26	1039.0	931.7
74.27	1035.0	931.6
74.28	1037.0	931.5
74.29	1063.0	931.3
74.3	1037.0	931.2
74.31	1025.0	931.1
74.32	1007.0	931.0
74.33	1011.0	930.9
74.34	1027.0	930.8
74.35	1037.0	930.7
74.36	1015.0	930.6
74.37	1028.0	930.4
74.38	1018.0	930.3
74.39	1007.0	930.2
74.4	980.0	930.1
74.41	1026.0	930.0
74.42	1018.0	929.9
74.43	984.0	929.8
74.44	990.0	929.7
74.45	1023.0	929.6
74.46	1015.0	929.4
74.47	992.0	929.3
74.48	982.0	929.2
74.49	985.0	929.1
74.5	1025.0	929.0
74.51	1020.0	928.9
74.52	1026.0	928.8
74.53	979.0	928.7
74.54	1011.0	928.6
74.55	1011.0	928.5
74.56	1006.0	928.3
74.57	1007.0	928.2
74.58	1006.0	928.1
74.59	1027.0	928.0
74.6	997.0	927.9
74.61	1011.0	927.8
74.62	1002.0	927.7
74.63	1044.0	927.6
74.64	1033.0	927.5
74.65	992.0	927.4
74.66	1021.0	927.3
74.67	1033.0	927.1
74.68	1037.0	927.0
74.69	1081.0	926.9
74.7	1030.0	926.8
74.71	1042.0	926.7
74.72	1030.0	926.6
74.73	1065.0	926.5
74.74	1054.0	926.4
74.75	1058.0	926.3
74.76	986.0	926.2
74.77	1042.0	926.1
74.78	1036.0	926.0
74.79	1017.0	925.9
74.8	1009.0	925.7
74.81	1036.0	925.6
74.82	1050.0	925.5
74.83	1066.0	925.4
74.84	1038.0	925.3
74.85	1030.0	925.2
74.86	1064.0	925.1
74.87	1075.0	925.0
74.88	1109.0	924.9
74.89	1076.0	924.8
74.9	1048.0	924.7
74.91	1054.0	924.6
74.92	1049.0	924.5
74.93	1072.0	924.4
74.94	1101.0	924.3
74.95	1071.0	924.2
74.96	1026.0	924.1
74.97	990.0	923.9
74.98	1052.0	923.8
74.99	1115.0	923.7
75.0	1094.0	923.6
75.01	1079.0	923.5
75.02	1070.0	923.4
75.03	1098.0	923.3
75.04	1097.0	923.2
75.05	1068.0	923.1
75.06	1092.0	923.0
75.07	1111.0	922.9
75.08	1105.0	922.8
75.09	1062.0	922.7
75.1	1042.0	922.6
75.11	1099.0	922.5
75.12	1117.0	922.4
75.13	1066.0	922.3
75.14	1063.0	922.2
75.15	1027.0	922.1
75.16	1018.0	922.0
75.17	1110.0	921.9
75.18	1090.0	921.8
75.19	1068.0	921.7
75.2	1091.0	921.6
75.21	1135.0	921.5
75.22	1126.0	921.4
75.23	1082.0	921.3
75.24	1081.0	921.2
75.25	1093.0	921.1
75.26	1107.0	921.0
75.27	1105.0	920.9
75.28	1083.0	920.8
75.29	1064.0	920.7
75.3	1082.0	920.6
75.31	1081.0	920.5
75.32	1090.0	920.4
75.33	1106.0	920.3
75.34	1085.0	920.2
75.35	1100.0	920.1
75.36	1113.0	920.0
75.37	1099.0	919.9
75.38	1125.0	919.8
75.39	1099.0	919.7
75.4	1069.0	919.6
75.41	1050.0	919.5
75.42	1080.0	919.4
75.43	1066.0	919.3
75.44	1101.0	919.2
75.45	1065.0	919.1
75.46	1082.0	919.0
75.47	1055.0	918.9
75.48	1056.0	918.8
75.49	1077.0	918.7
75.5	1057.0	918.6
75.51	1069.0	918.5
75.52	1041.0	918.4
75.53	1020.0	918.3
75.54	1080.0	918.2
75.55	1072.0	918.1
75.56	1064.0	918.0
75.57	1110.0	917.9
75.58	1074.0	917.8
75.59	1083.0	917.7
75.6	1084.0	917.6
75.61	1086.0	917.5
75.62	1067.0	917.4
75.63	1065.0	917.3
75.64	1078.0	917.2
75.65	1055.0	917.1
75.66	1038.0	917.0
75.67	1067.0	916.9
75.68	1064.0	916.8
75.69	1075.0	916.7
75.7	1061.0	916.6
75.71	1058.0	916.5
75.72	1058.0	916.5
75.73	1053.0	916.4
75.74	1062.0	916.3
75.75	1080.0	916.2
75.76	1059.0	916.1
75.77	1051.0	916.0
75.78	1056.0	915.9
75.79	1039.0	915.8
75.8	1040.0	915.7
75.81	1038.0	915.6
75.82	1023.0	915.5
75.83	1008.0	915.4
75.84	1023.0	915.3
75.85	1018.0	915.2
75.86	977.0	915.1
75.87	1014.0	915.0
75.88	1035.0	915.0
75.89	1020.0	914.9
75.9	977.0	914.8
75.91	1009.0	914.7
75.92	1011.0	914.6
75.93	1026.0	914.5
75.94	1047.0	914.4
75.95	1020.0	914.3
75.96	984.0	914.2
75.97	1010.0	914.1
75.98	1022.0	914.0
75.99	974.0	913.9
76.0	1016.0	913.9
76.01	985.0	913.8
76.02	953.0	913.7
76.03	990.0	913.6
76.04	989.0	913.5
76.05	982.0	913.4
76.06	962.0	913.3
76.07	992.0	913.2
76.08	998.0	913.1
76.09	988.0	913.0
76.1	1016.0	912.9
76.11	1022.0	912.9
76.12	971.0	912.8
76.13	996.0	912.7
76.14	992.0	912.6
76.15	983.0	912.5
76.16	974.0	912.4
76.17	984.0	912.3
76.18	979.0	912.2
76.19	972.0	912.1
76.2	958.0	912.1
76.21	971.0	912.0
76.22	991.0	911.9
76.23	989.0	911.8
76.24	971.0	911.7
76.25	975.0	911.6
76.26	992.0	911.5
76.27	953.0	911.4
76.28	967.0	911.4
76.29	989.0	911.3
76.3	982.0	911.2
76.31	975.0	911.1
76.32	957.0	911.0
76.33	972.0	910.9
76.34	975.0	910.8
76.35	951.0	910.8
76.36	939.0	910.7
76.37	931.0	910.6
76.38	947.0	910.5
76.39	967.0	910.4
76.4	1000.0	910.3
76.41	942.0	910.2
76.42	960.0	910.2
76.43	939.0	910.1
76.44	957.0	910.0
76.45	961.0	909.9
76.46	972.0	909.8
76.47	944.0	909.7
76.48	929.0	909.7
76.49	932.0	909.6
76.5	935.0	909.5
76.51	939.0	909.4
76.52	932.0	909.3
76.53	909.0	909.2
76.54	948.0	909.2
76.55	947.0	909.1
76.56	964.0	909.0
76.57	963.0	908.9
76.58	935.0	908.8
76.59	915.0	908.7
76.6	953.0	908.7
76.61	960.0	908.6
76.62	945.0	908.5
76.63	930.0	908.4
76.64	964.0	908.3
76.65	956.0	908.2
76.66	927.0	908.2
76.67	918.0	908.1
76.68	968.0	908.0
76.69	948.0	907.9
76.7	930.0	907.8
76.71	942.0	907.8
76.72	964.0	907.7
76.73	943.0	907.6
76.74	915.0	907.5
76.75	957.0	907.4
76.76	922.0	907.4
76.77	901.0	907.3
76.78	910.0	907.2
76.79	932.0	907.1
76.8	941.0	907.0
76.81	968.0	907.0
76.82	967.0	906.9
76.83	973.0	906.8
76.84	938.0	906.7
76.85	906.0	906.7
76.86	920.0	906.6
76.87	917.0	906.5
76.88	953.0	906.4
76.89	934.0	906.3
76.9	921.0	906.3
76.91	911.0	906.2
76.92	922.0	906.1
76.93	935.0	906.0
76.94	907.0	906.0
76.95	913.0	905.9
76.96	927.0	905.8
76.97	916.0	905.7
76.98	977.0	905.6
76.99	975.0	905.6
77.0	966.0	905.5
77.01	942.0	905.4
77.02	915.0	905.3
77.03	920.0	905.3
77.04	967.0	905.2
77.05	895.0	905.1
77.06	921.0	905.0
77.07	951.0	905.0
77.08	926.0	904.9
77.09	892.0	904.8
77.1	923.0	904.7
77.11	961.0	904.7
77.12	922.0	904.6
77.13	940.0	904.5
77.14	944.0	904.5
77.15	943.0	904.4
77.16	938.0	904.3
77.17	964.0	904.2
77.18	916.0	904.2
77.19	929.0	904.1
77.2	943.0	904.0
77.21	917.0	903.9
77.22	984.0	903.9
77.23	989.0	903.8
77.24	948.0	903.7
77.25	991.0	903.7
77.26	971.0	903.6
77.27	953.0	903.5
77.28	953.0	903.4
77.29	979.0	903.4
77.3	984.0	903.3
77.31	984.0	903.2
77.32	966.0	903.2
77.33	976.0	903.1
77.34	982.0	903.0
77.35	990.0	902.9
77.36	1000.0	902.9
77.37	1017.0	902.8
77.38	1026.0	902.7
77.39	1010.0	902.7
77.4	1034.0	902.6
77.41	1012.0	902.5
77.42	1007.0	902.5
77.43	994.0	902.4
77.44	982.0	902.3
77.45	1003.0	902.3
77.46	965.0	902.2
77.47	964.0	902.1
77.48	943.0	902.0
77.49	925.0	902.0
77.5	967.0	901.9
77.51	960.0	901.8
77.52	962.0	901.8
77.53	963.0	901.7
77.54	937.0	901.6
77.55	954.0	901.6
77.56	962.0	901.5
77.57	942.0	901.4
77.58	914.0	901.4
77.59	946.0	901.3
77.6	944.0	901.2
77.61	979.0	901.2
77.62	999.0	901.1
77.63	996.0	901.0
77.64	974.0	901.0
77.65	951.0	900.9
77.66	958.0	900.9
77.67	953.0	900.8
77.68	948.0	900.7
77.69	920.0	900.7
77.7	948.0	900.6
77.71	979.0	900.5
77.72	970.0	900.5
77.73	919.0	900.4
77.74	935.0	900.3
77.75	928.0	900.3
77.76	937.0	900.2
77.77	960.0	900.2
77.78	944.0	900.1
77.79	920.0	900.0
77.8	907.0	900.0
77.81	923.0	899.9
77.82	931.0	899.8
77.83	938.0	899.8
77.84	933.0	899.7
77.85	927.0	899.7
77.86	926.0	899.6
77.87	918.0	899.5
77.88	919.0	899.5
77.89	889.0	899.4
77.9	891.0	899.4
77.91	913.0	899.3
77.92	914.0	899.2
77.93	933.0	899.2
77.94	948.0	899.1
77.95	932.0	899.1
77.96	917.0	899.0
77.97	919.0	898.9
77.98	946.0	898.9
77.99	929.0	898.8
78.0	923.0	898.8
78.01	909.0	898.7
78.02	918.0	898.6
78.03	937.0	898.6
78.04	960.0	898.5
78.05	923.0	898.5
78.06	924.0	898.4
78.07	950.0	898.3
78.08	942.0	898.3
78.09	924.0	898.2
78.1	946.0	898.2
78.11	937.0	898.1
78.12	930.0	898.1
78.13	917.0	898.0
78.14	954.0	898.0
78.15	994.0	897.9
78.16	923.0	897.8
78.17	932.0	897.8
78.18	910.0	897.7
78.19	918.0	897.7
78.2	906.0	897.6
78.21	910.0	897.6
78.22	914.0	897.5
78.23	946.0	897.5
78.24	948.0	897.4
78.25	929.0	897.3
78.26	900.0	897.3
78.27	913.0	897.2
78.28	947.0	897.2
78.29	926.0	897.1
78.3	957.0	897.1
78.31	971.0	897.0
78.32	946.0	897.0
78.33	941.0	896.9
78.34	957.0	896.9
78.35	971.0	896.8
78.36	960.0	896.8
78.37	964.0	896.7
78.38	1018.0	896.7
78.39	987.0	896.6
78.4	1037.0	896.6
78.41	1035.0	896.5
78.42	1006.0	896.5
78.43	1025.0	896.4
78.44	1039.0	896.3
78.45	1033.0	896.3
78.46	1069.0	896.2
78.47	1096.0	896.2
78.48	1102.0	896.1
78.49	1107.0	896.1
78.5	1138.0	896.0
78.51	1169.0	896.0
78.52	1175.0	896.0
78.53	1169.0	895.9
78.54	1177.0	895.9
78.55	1128.0	895.8
78.56	1119.0	895.8
78.57	1123.0	895.7
78.58	1164.0	895.7
78.59	1105.0	895.6
78.6	1069.0	895.6
78.61	1084.0	895.5
78.62	1101.0	895.5
78.63	1083.0	895.4
78.64	1063.0	895.4
78.65	1065.0	895.3
78.66	1102.0	895.3
78.67	1094.0	895.2
78.68	1063.0	895.2
78.69	1065.0	895.1
78.7	1080.0	895.1
78.71	1092.0	895.1
78.72	1059.0	895.0
78.73	1071.0	895.0
78.74	1077.0	894.9
78.75	1064.0	894.9
78.76	1040.0	894.8
78.77	1054.0	894.8
78.78	1082.0	894.7
78.79	1055.0	894.7
78.8	1059.0	894.7
78.81	1056.0	894.6
78.82	1057.0	894.6
78.83	1036.0	894.5
78.84	1011.0	894.5
78.85	1004.0	894.4
78.86	1019.0	894.4
78.87	1017.0	894.4
78.88	998.0	894.3
78.89	998.0	894.3
78.9	975.0	894.2
78.91	978.0	894.2
78.92	1004.0	894.1
78.93	991.0	894.1
78.94	976.0	894.1
78.95	990.0	894.0
78.96	968.0	894.0
78.97	972.0	893.9
78.98	947.0	893.9
78.99	903.0	893.9
79.0	925.0	893.8
79.01	934.0	893.8
79.02	905.0	893.7
79.03	917.0	893.7
79.04	917.0	893.7
79.05	948.0	893.6
79.06	939.0	893.6
79.07	903.0	893.5
79.08	923.0	893.5
79.09	966.0	893.5
79.1	951.0	893.4
79.11	921.0	893.4
79.12	911.0	893.4
79.13	918.0	893.3
79.14	904.0	893.3
79.15	920.0	893.2
79.16	936.0	893.2
79.17	964.0	893.2
79.18	928.0	893.1
79.19	929.0	893.1
79.2	922.0	893.1
79.21	899.0	893.0
79.22	905.0	893.0
79.23	962.0	893.0
79.24	951.0	892.9
79.25	894.0	892.9
79.26	912.0	892.9
79.27	945.0	892.8
79.28	908.0	892.8
79.29	860.0	892.7
79.3	917.0	892.7
79.31	943.0	892.7
79.32	926.0	892.6
79.33	921.0	892.6
79.34	914.0	892.6
79.35	906.0	892.6
79.36	934.0	892.5
79.37	939.0	892.5
79.38	923.0	892.5
79.39	899.0	892.4
79.4	914.0	892.4
79.41	899.0	892.4
79.42	882.0	892.3
79.43	914.0	892.3
79.44	929.0	892.3
79.45	932.0	892.2
79.46	901.0	892.2
79.47	893.0	892.2
79.48	904.0	892.1
79.49	878.0	892.1
79.5	868.0	892.1
79.51	917.0	892.1
79.52	933.0	892.0
79.53	929.0	892.0
79.54	946.0	892.0
79.55	970.0	891.9
79.56	933.0	891.9
79.57	906.0	891.9
79.58	909.0	891.9
79.59	904.0	891.8
79.6	946.0	891.8
79.61	910.0	891.8
79.62	882.0	891.7
79.63	919.0	891.7
79.64	921.0	891.7
79.65	917.0	891.7
79.66	928.0	891.6
79.67	905.0	891.6
79.68	943.0	891.6
79.69	943.0	891.6
79.7	916.0	891.5
79.71	890.0	891.5
79.72	935.0	891.5
79.73	963.0	891.4
79.74	936.0	891.4
79.75	926.0	891.4
79.76	944.0	891.4
79.77	946.0	891.3
79.78	957.0	891.3
79.79	946.0	891.3
79.8	935.0	891.3
79.81	914.0	891.3
79.82	912.0	891.2
79.83	968.0	891.2
79.84	962.0	891.2
79.85	957.0	891.2
79.86	923.0	891.1
79.87	946.0	891.1
79.88	1004.0	891.1
79.89	963.0	891.1
79.9	947.0	891.0
79.91	931.0	891.0
79.92	916.0	891.0
79.93	926.0	891.0
79.94	944.0	891.0
79.95	944.0	890.9
79.96	963.0	890.9
79.97	965.0	890.9
79.98	949.0	890.9
79.99	950.0	890.8
80.0	1016.0	890.8
80.01	1000.0	890.8
80.02	1005.0	890.8
80.03	1033.0	890.8
80.04	1022.0	890.7
80.05	1030.0	890.7
80.06	1036.0	890.7
80.07	1032.0	890.7
80.08	1026.0	890.7
80.09	1061.0	890.6
80.1	1107.0	890.6
80.11	1104.0	890.6
80.12	1110.0	890.6
80.13	1116.0	890.6
80.14	1096.0	890.6
80.15	1109.0	890.5
80.16	1100.0	890.5
80.17	1122.0	890.5
80.18	1142.0	890.5
80.19	1136.0	890.5
80.2	1111.0	890.4
80.21	1093.0	890.4
80.22	1116.0	890.4
80.23	1132.0	890.4
80.24	1101.0	890.4
80.25	1110.0	890.4
80.26	1055.0	890.3
80.27	1025.0	890.3
80.28	1049.0	890.3
80.29	1044.0	890.3
80.3	1063.0	890.3
80.31	1046.0	890.3
80.32	1043.0	890.2
80.33	1030.0	890.2
80.34	1053.0	890.2
80.35	1060.0	890.2
80.36	1049.0	890.2
80.37	1052.0	890.2
80.38	1066.0	890.1
80.39	1072.0	890.1
80.4	1048.0	890.1
80.41	1058.0	890.1
80.42	1041.0	890.1
80.43	1049.0	890.1
80.44	1037.0	890.1
80.45	1013.0	890.0
80.46	1016.0	890.0
80.47	1020.0	890.0
80.48	995.0	890.0
80.49	977.0	890.0
80.5	995.0	890.0
80.51	1000.0	890.0
80.52	975.0	890.0
80.53	964.0	889.9
80.54	995.0	889.9
80.55	979.0	889.9
80.56	970.0	889.9
80.57	947.0	889.9
80.58	941.0	889.9
80.59	959.0	889.9
80.6	951.0	889.9
80.61	955.0	889.8
80.62	957.0	889.8
80.63	955.0	889.8
80.64	942.0	889.8
80.65	966.0	889.8
80.66	942.0	889.8
80.67	926.0	889.8
80.68	931.0	889.8
80.69	929.0	889.7
80.7	942.0	889.7
80.71	953.0	889.7
80.72	943.0	889.7
80.73	966.0	889.7
80.74	948.0	889.7
80.75	954.0	889.7
80.76	976.0	889.7
80.77	957.0	889.7
80.78	959.0	889.7
80.79	990.0	889.6
80.8	946.0	889.6
80.81	940.0	889.6
80.82	939.0	889.6
80.83	977.0	889.6
80.84	987.0	889.6
80.85	911.0	889.6
80.86	914.0	889.6
80.87	951.0	889.6
80.88	943.0	889.6
80.89	929.0	889.6
80.9	914.0	889.5
80.91	907.0	889.5
80.92	927.0	889.5
80.93	946.0	889.5
80.94	919.0	889.5
80.95	938.0	889.5
80.96	968.0	889.5
80.97	950.0	889.5
80.98	969.0	889.5
80.99	945.0	889.5
81.0	915.0	889.5
81.01	939.0	889.5
81.02	950.0	889.5
81.03	947.0	889.4
81.04	954.0	889.4
81.05	917.0	889.4
81.06	902.0	889.4
81.07	944.0	889.4
81.08	920.0	889.4
81.09	904.0	889.4
81.1	924.0	889.4
81.11	934.0	889.4
81.12	927.0	889.4
81.13	901.0	889.4
81.14	918.0	889.4
81.15	924.0	889.4
81.16	929.0	889.4
81.17	908.0	889.4
81.18	884.0	889.4
81.19	895.0	889.4
81.2	925.0	889.3
81.21	945.0	889.3
81.22	954.0	889.3
81.23	958.0	889.3
81.24	917.0	889.3
81.25	918.0	889.3
81.26	953.0	889.3
81.27	958.0	889.3
81.28	947.0	889.3
81.29	911.0	889.3
81.3	928.0	889.3
81.31	931.0	889.3
81.32	957.0	889.3
81.33	959.0	889.3
81.34	952.0	889.3
81.35	938.0	889.3
81.36	894.0	889.3
81.37	910.0	889.3
81.38	905.0	889.3
81.39	923.0	889.3
81.4	938.0	889.3
81.41	932.0	889.3
81.42	904.0	889.3
81.43	925.0	889.3
81.44	946.0	889.2
81.45	941.0	889.2
81.46	936.0	889.2
81.47	947.0	889.2
81.48	951.0	889.2
81.49	898.0	889.2
81.5	914.0	889.2
81.51	934.0	889.2
81.52	954.0	889.2
81.53	947.0	889.2
81.54	945.0	889.2
81.55	939.0	889.2
81.56	984.0	889.2
81.57	969.0	889.2
81.58	970.0	889.2
81.59	960.0	889.2
81.6	994.0	889.2
81.61	969.0	889.2
81.62	958.0	889.2
81.63	980.0	889.2
81.64	979.0	889.2
81.65	956.0	889.2
81.66	923.0	889.2
81.67	949.0	889.2
81.68	998.0	889.2
81.69	987.0	889.2
81.7	1026.0	889.2
81.71	1042.0	889.2
81.72	1008.0	889.2
81.73	1019.0	889.2
81.74	1022.0	889.2
81.75	1004.0	889.2
81.76	1015.0	889.2
81.77	1046.0	889.2
81.78	1034.0	889.2
81.79	1032.0	889.2
81.8	1030.0	889.2
81.81	1030.0	889.2
81.82	1036.0	889.2
81.83	1029.0	889.2
81.84	1020.0	889.2
81.85	1061.0	889.2
81.86	1059.0	889.2
81.87	1025.0	889.2
81.88	1044.0	889.2
81.89	1065.0	889.2
81.9	1036.0	889.2
81.91	1030.0	889.2
81.92	1031.0	889.2
81.93	1044.0	889.2
81.94	1060.0	889.2
81.95	1034.0	889.2
81.96	1059.0	889.2
81.97	1056.0	889.2
81.98	1039.0	889.2
81.99	1025.0	889.2
82.0	1038.0	889.2
82.01	1015.0	889.2
82.02	1006.0	889.2
82.03	1003.0	889.2
82.04	996.0	889.2
82.05	977.0	889.2
82.06	994.0	889.2
82.07	1057.0	889.2
82.08	1006.0	889.2
82.09	1000.0	889.2
82.1	1040.0	889.2
82.11	1013.0	889.2
82.12	989.0	889.2
82.13	1037.0	889.2
82.14	1027.0	889.2
82.15	998.0	889.2
82.16	1004.0	889.2
82.17	1006.0	889.2
82.18	1039.0	889.2
82.19	1027.0	889.2
82.2	1019.0	889.2
82.21	989.0	889.2
82.22	1039.0	889.2
82.23	1080.0	889.2
82.24	1037.0	889.2
82.25	1006.0	889.2
82.26	1003.0	889.2
82.27	1005.0	889.2
82.28	1004.0	889.2
82.29	992.0	889.2
82.3	976.0	889.2
82.31	984.0	889.2
82.32	994.0	889.2
82.33	1013.0	889.2
82.34	1000.0	889.2
82.35	1005.0	889.2
82.36	1020.0	889.2
82.37	986.0	889.2
82.38	963.0	889.2
82.39	955.0	889.2
82.4	977.0	889.2
82.41	963.0	889.2
82.42	990.0	889.2
82.43	999.0	889.2
82.44	983.0	889.3
82.45	978.0	889.3
82.46	992.0	889.3
82.47	1006.0	889.3
82.48	1013.0	889.3
82.49	1006.0	889.3
82.5	983.0	889.3
82.51	961.0	889.3
82.52	990.0	889.3
82.53	1016.0	889.3
82.54	1013.0	889.3
82.55	1018.0	889.3
82.56	1011.0	889.3
82.57	1041.0	889.3
82.58	1068.0	889.3
82.59	1074.0	889.3
82.6	1010.0	889.3
82.61	938.0	889.3
82.62	1010.0	889.3
82.63	1057.0	889.3
82.64	1029.0	889.3
82.65	996.0	889.3
82.66	1018.0	889.3
82.67	976.0	889.3
82.68	989.0	889.3
82.69	984.0	889.3
82.7	1018.0	889.3
82.71	1048.0	889.3
82.72	1030.0	889.3
82.73	1002.0	889.3
82.74	1002.0	889.3
82.75	977.0	889.3
82.76	1001.0	889.3
82.77	995.0	889.3
82.78	1020.0	889.3
82.79	978.0	889.3
82.8	1024.0	889.3
82.81	1030.0	889.3
82.82	994.0	889.3
82.83	1001.0	889.4
82.84	994.0	889.4
82.85	981.0	889.4
82.86	1019.0	889.4
82.87	1077.0	889.4
82.88	1054.0	889.4
82.89	1015.0	889.4
82.9	1007.0	889.4
82.91	1014.0	889.4
82.92	1004.0	889.4
82.93	999.0	889.4
82.94	995.0	889.4
82.95	991.0	889.4
82.96	992.0	889.4
82.97	998.0	889.4
82.98	996.0	889.4
82.99	952.0	889.4
83.0	984.0	889.4
83.01	1015.0	889.4
83.02	1034.0	889.4
83.03	999.0	889.4
83.04	1008.0	889.4
83.05	1026.0	889.4
83.06	1033.0	889.4
83.07	994.0	889.4
83.08	995.0	889.4
83.09	1011.0	889.4
83.1	1006.0	889.4
83.11	1030.0	889.4
83.12	998.0	889.4
83.13	1012.0	889.4
83.14	1027.0	889.4
83.15	1044.0	889.4
83.16	1055.0	889.4
83.17	1063.0	889.4
83.18	1047.0	889.4
83.19	1012.0	889.4
83.2	999.0	889.5
83.21	1020.0	889.5
83.22	1035.0	889.5
83.23	1015.0	889.5
83.24	1048.0	889.5
83.25	1072.0	889.5
83.26	1069.0	889.5
83.27	1053.0	889.5
83.28	1032.0	889.5
83.29	1046.0	889.5
83.3	1044.0	889.5
83.31	1039.0	889.5
83.32	1080.0	889.5
83.33	1049.0	889.5
83.34	1055.0	889.5
83.35	1097.0	889.5
83.36	1110.0	889.5
83.37	1103.0	889.5
83.38	1073.0	889.5
83.39	1056.0	889.5
83.4	1054.0	889.5
83.41	1039.0	889.5
83.42	1063.0	889.5
83.43	1079.0	889.5
83.44	1073.0	889.5
83.45	1065.0	889.5
83.46	1045.0	889.5
83.47	1047.0	889.5
83.48	1046.0	889.5
83.49	1028.0	889.5
83.5	1048.0	889.5
83.51	1058.0	889.5
83.52	1029.0	889.5
83.53	1031.0	889.5
83.54	1019.0	889.5
83.55	1040.0	889.5
83.56	1027.0	889.5
83.57	1025.0	889.5
83.58	1027.0	889.5
83.59	970.0	889.5
83.6	965.0	889.5
83.61	996.0	889.5
83.62	1025.0	889.5
83.63	1003.0	889.5
83.64	1003.0	889.5
83.65	983.0	889.5
83.66	939.0	889.5
83.67	963.0	889.5
83.68	976.0	889.5
83.69	981.0	889.5
83.7	988.0	889.5
83.71	986.0	889.5
83.72	971.0	889.5
83.73	969.0	889.5
83.74	961.0	889.5
83.75	958.0	889.5
83.76	968.0	889.5
83.77	991.0	889.5
83.78	982.0	889.5
83.79	966.0	889.5
83.8	970.0	889.5
83.81	943.0	889.5
83.82	958.0	889.5
83.83	966.0	889.5
83.84	938.0	889.5
83.85	931.0	889.5
83.86	939.0	889.5
83.87	920.0	889.5
83.88	941.0	889.5
83.89	957.0	889.5
83.9	962.0	889.5
83.91	917.0	889.5
83.92	901.0	889.5
83.93	921.0	889.5
83.94	944.0	889.5
83.95	954.0	889.5
83.96	946.0	889.5
83.97	975.0	889.5
83.98	976.0	889.5
83.99	927.0	889.5
84.0	916.0	889.5
84.01	919.0	889.5
84.02	905.0	889.5
84.03	901.0	889.5
84.04	923.0	889.5
84.05	948.0	889.5
84.06	944.0	889.5
84.07	969.0	889.5
84.08	936.0	889.5
84.09	941.0	889.5
84.1	917.0	889.5
84.11	914.0	889.5
84.12	940.0	889.5
84.13	922.0	889.5
84.14	881.0	889.5
84.15	905.0	889.5
84.16	908.0	889.5
84.17	913.0	889.5
84.18	916.0	889.5
84.19	925.0	889.5
84.2	934.0	889.5
84.21	914.0	889.5
84.22	926.0	889.5
84.23	956.0	889.5
84.24	930.0	889.5
84.25	931.0	889.5
84.26	948.0	889.5
84.27	928.0	889.5
84.28	921.0	889.5
84.29	933.0	889.5
84.3	938.0	889.5
84.31	932.0	889.5
84.32	954.0	889.5
84.33	919.0	889.5
84.34	942.0	889.5
84.35	962.0	889.5
84.36	963.0	889.5
84.37	934.0	889.5
84.38	933.0	889.5
84.39	932.0	889.5
84.4	942.0	889.5
84.41	951.0	889.4
84.42	947.0	889.4
84.43	917.0	889.4
84.44	948.0	889.4
84.45	929.0	889.4
84.46	899.0	889.4
84.47	890.0	889.4
84.48	942.0	889.4
84.49	963.0	889.4
84.5	981.0	889.4
84.51	979.0	889.4
84.52	969.0	889.4
84.53	940.0	889.4
84.54	936.0	889.4
84.55	985.0	889.4
84.56	948.0	889.4
84.57	951.0	889.4
84.58	959.0	889.4
84.59	984.0	889.4
84.6	1023.0	889.4
84.61	958.0	889.4
84.62	951.0	889.3
84.63	976.0	889.3
84.64	961.0	889.3
84.65	998.0	889.3
84.66	978.0	889.3
84.67	972.0	889.3
84.68	999.0	889.3
84.69	998.0	889.3
84.7	985.0	889.3
84.71	987.0	889.3
84.72	1005.0	889.3
84.73	1007.0	889.3
84.74	983.0	889.3
84.75	992.0	889.3
84.76	973.0	889.3
84.77	983.0	889.2
84.78	972.0	889.2
84.79	985.0	889.2
84.8	1012.0	889.2
84.81	1018.0	889.2
84.82	1018.0	889.2
84.83	1033.0	889.2
84.84	1022.0	889.2
84.85	999.0	889.2
84.86	1022.0	889.2
84.87	1013.0	889.2
84.88	1024.0	889.2
84.89	1043.0	889.1
84.9	999.0	889.1
84.91	1001.0	889.1
84.92	994.0	889.1
84.93	990.0	889.1
84.94	1000.0	889.1
84.95	1026.0	889.1
84.96	1017.0	889.1
84.97	977.0	889.1
84.98	952.0	889.1
84.99	960.0	889.1
85.0	961.0	889.0
85.01	987.0	889.0
85.02	973.0	889.0
85.03	955.0	889.0
85.04	956.0	889.0
85.05	963.0	889.0
85.06	981.0	889.0
85.07	980.0	889.0
85.08	981.0	889.0
85.09	950.0	888.9
85.1	977.0	888.9
85.11	985.0	888.9
85.12	969.0	888.9
85.13	947.0	888.9
85.14	985.0	888.9
85.15	955.0	888.9
85.16	971.0	888.9
85.17	956.0	888.9
85.18	963.0	888.8
85.19	951.0	888.8
85.2	920.0	888.8
85.21	919.0	888.8
85.22	917.0	888.8
85.23	923.0	888.8
85.24	936.0	888.8
85.25	945.0	888.8
85.26	937.0	888.7
85.27	935.0	888.7
85.28	937.0	888.7
85.29	914.0	888.7
85.3	941.0	888.7
85.31	919.0	888.7
85.32	916.0	888.7
85.33	918.0	888.6
85.34	914.0	888.6
85.35	919.0	888.6
85.36	903.0	888.6
85.37	877.0	888.6
85.38	882.0	888.6
85.39	925.0	888.6
85.4	926.0	888.5
85.41	879.0	888.5
85.42	912.0	888.5
85.43	924.0	888.5
85.44	893.0	888.5
85.45	863.0	888.5
85.46	890.0	888.4
85.47	908.0	888.4
85.48	898.0	888.4
85.49	865.0	888.4
85.5	869.0	888.4
85.51	917.0	888.4
85.52	922.0	888.3
85.53	930.0	888.3
85.54	909.0	888.3
85.55	946.0	888.3
85.56	951.0	888.3
85.57	936.0	888.3
85.58	915.0	888.2
85.59	923.0	888.2
85.6	920.0	888.2
85.61	940.0	888.2
85.62	964.0	888.2
85.63	949.0	888.1
85.64	926.0	888.1
85.65	916.0	888.1
85.66	923.0	888.1
85.67	920.0	888.1
85.68	924.0	888.0
85.69	941.0	888.0
85.7	945.0	888.0
85.71	928.0	888.0
85.72	911.0	888.0
85.73	885.0	887.9
85.74	909.0	887.9
85.75	944.0	887.9
85.76	935.0	887.9
85.77	921.0	887.9
85.78	890.0	887.8
85.79	898.0	887.8
85.8	913.0	887.8
85.81	980.0	887.8
85.82	941.0	887.8
85.83	920.0	887.7
85.84	917.0	887.7
85.85	910.0	887.7
85.86	924.0	887.7
85.87	945.0	887.7
85.88	940.0	887.6
85.89	945.0	887.6
85.9	942.0	887.6
85.91	957.0	887.6
85.92	949.0	887.5
85.93	958.0	887.5
85.94	927.0	887.5
85.95	905.0	887.5
85.96	930.0	887.5
85.97	959.0	887.4
85.98	965.0	887.4
85.99	932.0	887.4
86.0	918.0	887.4
86.01	939.0	887.3
86.02	931.0	887.3
86.03	935.0	887.3
86.04	941.0	887.3
86.05	932.0	887.2
86.06	927.0	887.2
86.07	915.0	887.2
86.08	927.0	887.2
86.09	947.0	887.1
86.1	936.0	887.1
86.11	913.0	887.1
86.12	922.0	887.1
86.13	928.0	887.0
86.14	938.0	887.0
86.15	916.0	887.0
86.16	913.0	887.0
86.17	928.0	886.9
86.18	911.0	886.9
86.19	970.0	886.9
86.2	961.0	886.9
86.21	982.0	886.8
86.22	935.0	886.8
86.23	938.0	886.8
86.24	946.0	886.8
86.25	926.0	886.7
86.26	921.0	886.7
86.27	926.0	886.7
86.28	933.0	886.7
86.29	952.0	886.6
86.3	959.0	886.6
86.31	975.0	886.6
86.32	967.0	886.5
86.33	962.0	886.5
86.34	960.0	886.5
86.35	978.0	886.5
86.36	982.0	886.4
86.37	959.0	886.4
86.38	961.0	886.4
86.39	982.0	886.4
86.4	1015.0	886.3
86.41	999.0	886.3
86.42	961.0	886.3
86.43	958.0	886.2
86.44	971.0	886.2
86.45	975.0	886.2
86.46	970.0	886.2
86.47	915.0	886.1
86.48	931.0	886.1
86.49	955.0	886.1
86.5	959.0	886.0
86.51	948.0	886.0
86.52	969.0	886.0
86.53	998.0	886.0
86.54	983.0	885.9
86.55	962.0	885.9
86.56	988.0	885.9
86.57	973.0	885.8
86.58	972.0	885.8
86.59	979.0	885.8
86.6	972.0	885.7
86.61	974.0	885.7
86.62	979.0	885.7
86.63	958.0	885.7
86.64	957.0	885.6
86.65	941.0	885.6
86.66	968.0	885.6
86.67	972.0	885.5
86.68	968.0	885.5
86.69	939.0	885.5
86.7	963.0	885.4
86.71	978.0	885.4
86.72	960.0	885.4
86.73	949.0	885.3
86.74	943.0	885.3
86.75	957.0	885.3
86.76	971.0	885.2
86.77	990.0	885.2
86.78	980.0	885.2
86.79	962.0	885.2
86.8	949.0	885.1
86.81	967.0	885.1
86.82	946.0	885.1
86.83	929.0	885.0
86.84	917.0	885.0
86.85	921.0	885.0
86.86	961.0	884.9
86.87	975.0	884.9
86.88	928.0	884.9
86.89	910.0	884.8
86.9	933.0	884.8
86.91	932.0	884.8
86.92	924.0	884.7
86.93	889.0	884.7
86.94	901.0	884.7
86.95	928.0	884.6
86.96	950.0	884.6
86.97	964.0	884.6
86.98	955.0	884.5
86.99	945.0	884.5
87.0	936.0	884.5
87.01	939.0	884.4
87.02	938.0	884.4
87.03	942.0	884.4
87.04	988.0	884.3
87.05	951.0	884.3
87.06	918.0	884.3
87.07	907.0	884.2
87.08	914.0	884.2
87.09	951.0	884.2
87.1	949.0	884.1
87.11	921.0	884.1
87.12	903.0	884.1
87.13	922.0	884.0
87.14	934.0	884.0
87.15	931.0	884.0
87.16	936.0	883.9
87.17	923.0	883.9
87.18	927.0	883.8
87.19	934.0	883.8
87.2	915.0	883.8
87.21	890.0	883.7
87.22	893.0	883.7
87.23	909.0	883.7
87.24	910.0	883.6
87.25	887.0	883.6
87.26	896.0	883.6
87.27	926.0	883.5
87.28	923.0	883.5
87.29	938.0	883.5
87.3	936.0	883.4
87.31	957.0	883.4
87.32	960.0	883.4
87.33	935.0	883.3
87.34	904.0	883.3
87.35	933.0	883.2
87.36	932.0	883.2
87.37	934.0	883.2
87.38	954.0	883.1
87.39	972.0	883.1
87.4	966.0	883.1
87.41	955.0	883.0
87.42	952.0	883.0
87.43	941.0	883.0
87.44	955.0	882.9
87.45	953.0	882.9
87.46	943.0	882.8
87.47	913.0	882.8
87.48	915.0	882.8
87.49	919.0	882.7
87.5	917.0	882.7
87.51	931.0	882.7
87.52	935.0	882.6
87.53	928.0	882.6
87.54	917.0	882.5
87.55	920.0	882.5
87.56	913.0	882.5
87.57	910.0	882.4
87.58	941.0	882.4
87.59	939.0	882.4
87.6	919.0	882.3
87.61	922.0	882.3
87.62	952.0	882.2
87.63	937.0	882.2
87.64	922.0	882.2
87.65	956.0	882.1
87.66	969.0	882.1
87.67	969.0	882.1
87.68	944.0	882.0
87.69	903.0	882.0
87.7	913.0	881.9
87.71	933.0	881.9
87.72	927.0	881.9
87.73	926.0	881.8
87.74	943.0	881.8
87.75	920.0	881.8
87.76	919.0	881.7
87.77	953.0	881.7
87.78	949.0	881.6
87.79	940.0	881.6
87.8	919.0	881.6
87.81	903.0	881.5
87.82	919.0	881.5
87.83	918.0	881.4
87.84	904.0	881.4
87.85	900.0	881.4
87.86	927.0	881.3
87.87	927.0	881.3
87.88	930.0	881.2
87.89	935.0	881.2
87.9	917.0	881.2
87.91	906.0	881.1
87.92	931.0	881.1
87.93	977.0	881.1
87.94	989.0	881.0
87.95	944.0	881.0
87.96	911.0	880.9
87.97	931.0	880.9
87.98	932.0	880.9
87.99	933.0	880.8
88.0	933.0	880.8
88.01	953.0	880.7
88.02	950.0	880.7
88.03	938.0	880.7
88.04	946.0	880.6
88.05	963.0	880.6
88.06	952.0	880.5
88.07	945.0	880.5
88.08	925.0	880.5
88.09	932.0	880.4
88.1	926.0	880.4
88.11	921.0	880.3
88.12	934.0	880.3
88.13	910.0	880.3
88.14	916.0	880.2
88.15	936.0	880.2
88.16	960.0	880.1
88.17	960.0	880.1
88.18	919.0	880.1
88.19	924.0	880.0
88.2	960.0	880.0
88.21	943.0	879.9
88.22	910.0	879.9
88.23	910.0	879.9
88.24	907.0	879.8
88.25	912.0	879.8
88.26	919.0	879.7
88.27	923.0	879.7
88.28	936.0	879.7
88.29	906.0	879.6
88.3	883.0	879.6
88.31	897.0	879.5
88.32	928.0	879.5
88.33	938.0	879.5
88.34	918.0	879.4
88.35	875.0	879.4
88.36	897.0	879.3
88.37	925.0	879.3
88.38	926.0	879.3
88.39	928.0	879.2
88.4	917.0	879.2
88.41	905.0	879.1
88.42	893.0	879.1
88.43	891.0	879.1
88.44	889.0	879.0
88.45	900.0	879.0
88.46	910.0	878.9
88.47	906.0	878.9
88.48	918.0	878.9
88.49	931.0	878.8
88.5	933.0	878.8
88.51	942.0	878.7
88.52	895.0	878.7
88.53	875.0	878.7
88.54	885.0	878.6
88.55	907.0	878.6
88.56	937.0	878.5
88.57	930.0	878.5
88.58	912.0	878.5
88.59	925.0	878.4
88.6	925.0	878.4
88.61	922.0	878.3
88.62	917.0	878.3
88.63	907.0	878.3
88.64	900.0	878.2
88.65	912.0	878.2
88.66	920.0	878.1
88.67	920.0	878.1
88.68	930.0	878.0
88.69	920.0	878.0
88.7	921.0	878.0
88.71	913.0	877.9
88.72	923.0	877.9
88.73	929.0	877.8
88.74	935.0	877.8
88.75	922.0	877.8
88.76	913.0	877.7
88.77	926.0	877.7
88.78	928.0	877.6
88.79	941.0	877.6
88.8	946.0	877.6
88.81	945.0	877.5
88.82	928.0	877.5
88.83	929.0	877.4
88.84	931.0	877.4
88.85	949.0	877.4
88.86	975.0	877.3
88.87	976.0	877.3
88.88	960.0	877.2
88.89	935.0	877.2
88.9	924.0	877.2
88.91	937.0	877.1
88.92	937.0	877.1
88.93	932.0	877.0
88.94	944.0	877.0
88.95	930.0	877.0
88.96	943.0	876.9
88.97	950.0	876.9
88.98	948.0	876.8
88.99	975.0	876.8
89.0	976.0	876.7
89.01	964.0	876.7
89.02	969.0	876.7
89.03	954.0	876.6
89.04	932.0	876.6
89.05	951.0	876.5
89.06	946.0	876.5
89.07	918.0	876.5
89.08	928.0	876.4
89.09	946.0	876.4
89.1	960.0	876.3
89.11	966.0	876.3
89.12	972.0	876.3
89.13	980.0	876.2
89.14	956.0	876.2
89.15	945.0	876.1
89.16	937.0	876.1
89.17	946.0	876.1
89.18	978.0	876.0
89.19	983.0	876.0
89.2	963.0	875.9
89.21	947.0	875.9
89.22	959.0	875.9
89.23	946.0	875.8
89.24	946.0	875.8
89.25	970.0	875.7
89.26	985.0	875.7
89.27	955.0	875.7
89.28	941.0	875.6
89.29	968.0	875.6
89.3	970.0	875.5
89.31	959.0	875.5
89.32	946.0	875.5
89.33	968.0	875.4
89.34	997.0	875.4
89.35	982.0	875.3
89.36	971.0	875.3
89.37	975.0	875.3
89.38	965.0	875.2
89.39	956.0	875.2
89.4	959.0	875.1
89.41	961.0	875.1
89.42	952.0	875.1
89.43	927.0	875.0
89.44	936.0	875.0
89.45	974.0	874.9
89.46	984.0	874.9
89.47	977.0	874.9
89.48	986.0	874.8
89.49	981.0	874.8
89.5	968.0	874.7
89.51	968.0	874.7
89.52	978.0	874.7
89.53	1004.0	874.6
89.54	1002.0	874.6
89.55	980.0	874.5
89.56	963.0	874.5
89.57	952.0	874.5
89.58	965.0	874.4
89.59	989.0	874.4
89.6	962.0	874.3
89.61	954.0	874.3
89.62	992.0	874.3
89.63	975.0	874.2
89.64	966.0	874.2
89.65	965.0	874.1
89.66	957.0	874.1
89.67	966.0	874.1
89.68	989.0	874.0
89.69	961.0	874.0
89.7	932.0	874.0
89.71	946.0	873.9
89.72	956.0	873.9
89.73	952.0	873.8
89.74	936.0	873.8
89.75	949.0	873.8
89.76	950.0	873.7
89.77	939.0	873.7
89.78	946.0	873.6
89.79	964.0	873.6
89.8	937.0	873.6
89.81	939.0	873.5
89.82	966.0	873.5
89.83	946.0	873.4
89.84	921.0	873.4
89.85	931.0	873.4
89.86	926.0	873.3
89.87	926.0	873.3
89.88	949.0	873.3
89.89	943.0	873.2
89.9	940.0	873.2
89.91	957.0	873.1
89.92	962.0	873.1
89.93	960.0	873.1
89.94	953.0	873.0
89.95	932.0	873.0
89.96	914.0	873.0
89.97	905.0	872.9
89.98	919.0	872.9
89.99	940.0	872.8
90.0	937.0	872.8
90.01	921.0	872.8
90.02	914.0	872.7
90.03	915.0	872.7
90.04	919.0	872.7
90.05	945.0	872.6
90.06	940.0	872.6
90.07	923.0	872.5
90.08	916.0	872.5
90.09	933.0	872.5
90.1	951.0	872.4
90.11	943.0	872.4
90.12	917.0	872.4
90.13	913.0	872.3
90.14	923.0	872.3
90.15	918.0	872.2
90.16	917.0	872.2
90.17	941.0	872.2
90.18	945.0	872.1
90.19	928.0	872.1
90.2	928.0	872.1
90.21	931.0	872.0
90.22	919.0	872.0
90.23	886.0	872.0
90.24	870.0	871.9
90.25	892.0	871.9
90.26	909.0	871.8
90.27	926.0	871.8
90.28	943.0	871.8
90.29	928.0	871.7
90.3	907.0	871.7
90.31	920.0	871.7
90.32	929.0	871.6
90.33	905.0	871.6
90.34	899.0	871.6
90.35	909.0	871.5
90.36	899.0	871.5
90.37	895.0	871.5
90.38	893.0	871.4
90.39	897.0	871.4
90.4	900.0	871.4
90.41	895.0	871.3
90.42	929.0	871.3
90.43	947.0	871.2
90.44	930.0	871.2
90.45	933.0	871.2
90.46	930.0	871.1
90.47	909.0	871.1
90.48	907.0	871.1
90.49	931.0	871.0
90.5	928.0	871.0
90.51	911.0	871.0
90.52	924.0	870.9
90.53	930.0	870.9
90.54	888.0	870.9
90.55	882.0	870.8
90.56	942.0	870.8
90.57	971.0	870.8
90.58	964.0	870.7
90.59	952.0	870.7
90.6	941.0	870.7
90.61	938.0	870.6
90.62	933.0	870.6
90.63	916.0	870.6
90.64	919.0	870.5
90.65	932.0	870.5
90.66	938.0	870.5
90.67	939.0	870.4
90.68	934.0	870.4
90.69	935.0	870.4
90.7	931.0	870.3
90.71	912.0	870.3
90.72	922.0	870.3
90.73	946.0	870.2
90.74	956.0	870.2
90.75	961.0	870.2
90.76	980.0	870.1
90.77	1000.0	870.1
90.78	981.0	870.1
90.79	972.0	870.0
90.8	998.0	870.0
90.81	986.0	870.0
90.82	964.0	869.9
90.83	976.0	869.9
90.84	973.0	869.9
90.85	981.0	869.9
90.86	977.0	869.8
90.87	998.0	869.8
90.88	1010.0	869.8
90.89	985.0	869.7
90.9	1006.0	869.7
90.91	1014.0	869.7
90.92	1011.0	869.6
90.93	996.0	869.6
90.94	977.0	869.6
90.95	976.0	869.5
90.96	980.0	869.5
90.97	1000.0	869.5
90.98	1029.0	869.5
90.99	1043.0	869.4
91.0	1039.0	869.4
91.01	1026.0	869.4
91.02	1026.0	869.3
91.03	1030.0	869.3
91.04	1017.0	869.3
91.05	1019.0	869.2
91.06	1048.0	869.2
91.07	1054.0	869.2
91.08	1030.0	869.2
91.09	1023.0	869.1
91.1	1028.0	869.1
91.11	1024.0	869.1
91.12	1010.0	869.0
91.13	1021.0	869.0
91.14	1037.0	869.0
91.15	1047.0	869.0
91.16	1053.0	868.9
91.17	1043.0	868.9
91.18	1033.0	868.9
91.19	1016.0	868.8
91.2	1015.0	868.8
91.21	1014.0	868.8
91.22	1000.0	868.8
91.23	1002.0	868.7
91.24	1005.0	868.7
91.25	990.0	868.7
91.26	956.0	868.6
91.27	957.0	868.6
91.28	993.0	868.6
91.29	1015.0	868.6
91.3	993.0	868.5
91.31	966.0	868.5
91.32	986.0	868.5
91.33	1018.0	868.5
91.34	1010.0	868.4
91.35	989.0	868.4
91.36	988.0	868.4
91.37	987.0	868.3
91.38	990.0	868.3
91.39	989.0	868.3
91.4	994.0	868.3
91.41	991.0	868.2
91.42	973.0	868.2
91.43	977.0	868.2
91.44	990.0	868.2
91.45	983.0	868.1
91.46	982.0	868.1
91.47	981.0	868.1
91.48	952.0	868.1
91.49	935.0	868.0
91.5	943.0	868.0
91.51	985.0	868.0
91.52	998.0	868.0
91.53	981.0	867.9
91.54	957.0	867.9
91.55	930.0	867.9
91.56	940.0	867.9
91.57	950.0	867.8
91.58	961.0	867.8
91.59	948.0	867.8
91.6	921.0	867.8
91.61	914.0	867.8
91.62	924.0	867.7
91.63	929.0	867.7
91.64	914.0	867.7
91.65	912.0	867.7
91.66	927.0	867.6
91.67	911.0	867.6
91.68	914.0	867.6
91.69	948.0	867.6
91.7	934.0	867.6
91.71	911.0	867.5
91.72	919.0	867.5
91.73	938.0	867.5
91.74	941.0	867.5
91.75	943.0	867.4
91.76	953.0	867.4
91.77	940.0	867.4
91.78	933.0	867.4
91.79	912.0	867.4
91.8	902.0	867.3
91.81	931.0	867.3
91.82	928.0	867.3
91.83	909.0	867.3
91.84	919.0	867.3
91.85	903.0	867.2
91.86	884.0	867.2
91.87	898.0	867.2
91.88	911.0	867.2
91.89	932.0	867.2
91.9	927.0	867.1
91.91	909.0	867.1
91.92	917.0	867.1
91.93	905.0	867.1
91.94	884.0	867.1
91.95	873.0	867.0
91.96	883.0	867.0
91.97	912.0	867.0
91.98	921.0	867.0
91.99	928.0	867.0
92.0	914.0	866.9
92.01	901.0	866.9
92.02	919.0	866.9
92.03	934.0	866.9
92.04	912.0	866.9
92.05	899.0	866.9
92.06	893.0	866.8
92.07	895.0	866.8
92.08	915.0	866.8
92.09	921.0	866.8
92.1	909.0	866.8
92.11	902.0	866.8
92.12	921.0	866.7
92.13	928.0	866.7
92.14	903.0	866.7
92.15	879.0	866.7
92.16	866.0	866.7
92.17	865.0	866.7
92.18	870.0	866.6
92.19	889.0	866.6
92.2	891.0	866.6
92.21	878.0	866.6
92.22	886.0	866.6
92.23	900.0	866.6
92.24	911.0	866.6
92.25	918.0	866.5
92.26	897.0	866.5
92.27	869.0	866.5
92.28	888.0	866.5
92.29	909.0	866.5
92.3	900.0	866.5
92.31	893.0	866.5
92.32	881.0	866.4
92.33	897.0	866.4
92.34	948.0	866.4
92.35	961.0	866.4
92.36	930.0	866.4
92.37	920.0	866.4
92.38	913.0	866.4
92.39	897.0	866.3
92.4	887.0	866.3
92.41	910.0	866.3
92.42	916.0	866.3
92.43	922.0	866.3
92.44	916.0	866.3
92.45	909.0	866.3
92.46	911.0	866.3
92.47	917.0	866.3
92.48	920.0	866.2
92.49	913.0	866.2
92.5	899.0	866.2
92.51	901.0	866.2
92.52	920.0	866.2
92.53	935.0	866.2
92.54	919.0	866.2
92.55	901.0	866.2
92.56	908.0	866.2
92.57	910.0	866.1
92.58	916.0	866.1
92.59	915.0	866.1
92.6	920.0	866.1
92.61	924.0	866.1
92.62	926.0	866.1
92.63	920.0	866.1
92.64	910.0	866.1
92.65	896.0	866.1
92.66	897.0	866.1
92.67	937.0	866.1
92.68	955.0	866.0
92.69	939.0	866.0
92.7	922.0	866.0
92.71	923.0	866.0
92.72	935.0	866.0
92.73	948.0	866.0
92.74	934.0	866.0
92.75	922.0	866.0
92.76	927.0	866.0
92.77	926.0	866.0
92.78	924.0	866.0
92.79	933.0	866.0
92.8	950.0	866.0
92.81	934.0	865.9
92.82	925.0	865.9
92.83	910.0	865.9
92.84	923.0	865.9
92.85	940.0	865.9
92.86	947.0	865.9
92.87	944.0	865.9
92.88	909.0	865.9
92.89	896.0	865.9
92.9	914.0	865.9
92.91	919.0	865.9
92.92	923.0	865.9
92.93	935.0	865.9
92.94	946.0	865.9
92.95	947.0	865.9
92.96	931.0	865.9
92.97	942.0	865.9
92.98	971.0	865.9
92.99	961.0	865.9
93.0	917.0	865.8
93.01	917.0	865.8
93.02	926.0	865.8
93.03	928.0	865.8
93.04	945.0	865.8
93.05	956.0	865.8
93.06	938.0	865.8
93.07	923.0	865.8
93.08	938.0	865.8
93.09	953.0	865.8
93.1	957.0	865.8
93.11	944.0	865.8
93.12	937.0	865.8
93.13	933.0	865.8
93.14	918.0	865.8
93.15	907.0	865.8
93.16	916.0	865.8
93.17	901.0	865.8
93.18	887.0	865.8
93.19	903.0	865.8
93.2	910.0	865.8
93.21	911.0	865.8
93.22	915.0	865.8
93.23	932.0	865.8
93.24	938.0	865.8
93.25	913.0	865.8
93.26	906.0	865.8
93.27	900.0	865.8
93.28	914.0	865.8
93.29	904.0	865.8
93.3	902.0	865.8
93.31	913.0	865.8
93.32	921.0	865.8
93.33	922.0	865.8
93.34	944.0	865.8
93.35	949.0	865.8
93.36	909.0	865.8
93.37	897.0	865.8
93.38	942.0	865.8
93.39	970.0	865.8
93.4	969.0	865.8
93.41	937.0	865.8
93.42	924.0	865.8
93.43	934.0	865.8
93.44	931.0	865.8
93.45	944.0	865.8
93.46	952.0	865.8
93.47	912.0	865.8
93.48	895.0	865.8
93.49	923.0	865.8
93.5	940.0	865.8
93.51	935.0	865.8
93.52	941.0	865.8
93.53	952.0	865.8
93.54	958.0	865.8
93.55	941.0	865.8
93.56	903.0	865.8
93.57	877.0	865.8
93.58	918.0	865.8
93.59	950.0	865.8
93.6	919.0	865.8
93.61	914.0	865.8
93.62	919.0	865.8
93.63	933.0	865.8
93.64	956.0	865.9
93.65	955.0	865.9
93.66	945.0	865.9
93.67	972.0	865.9
93.68	958.0	865.9
93.69	941.0	865.9
93.7	940.0	865.9
93.71	941.0	865.9
93.72	962.0	865.9
93.73	970.0	865.9
93.74	975.0	865.9
93.75	973.0	865.9
93.76	972.0	865.9
93.77	966.0	865.9
93.78	967.0	865.9
93.79	964.0	865.9
93.8	944.0	865.9
93.81	960.0	865.9
93.82	985.0	865.9
93.83	975.0	865.9
93.84	973.0	866.0
93.85	995.0	866.0
93.86	983.0	866.0
93.87	975.0	866.0
93.88	977.0	866.0
93.89	976.0	866.0
93.9	968.0	866.0
93.91	967.0	866.0
93.92	976.0	866.0
93.93	989.0	866.0
93.94	1009.0	866.0
93.95	1006.0	866.0
93.96	1004.0	866.0
93.97	1029.0	866.0
93.98	1019.0	866.1
93.99	1010.0	866.1
94.0	1013.0	866.1
94.01	1041.0	866.1
94.02	1053.0	866.1
94.03	1046.0	866.1
94.04	1034.0	866.1
94.05	1028.0	866.1
94.06	1031.0	866.1
94.07	1036.0	866.1
94.08	1036.0	866.1
94.09	1048.0	866.2
94.1	1043.0	866.2
94.11	1023.0	866.2
94.12	1016.0	866.2
94.13	1040.0	866.2
94.14	1058.0	866.2
94.15	1067.0	866.2
94.16	1040.0	866.2
94.17	1035.0	866.2
94.18	1047.0	866.2
94.19	1062.0	866.3
94.2	1080.0	866.3
94.21	1099.0	866.3
94.22	1090.0	866.3
94.23	1070.0	866.3
94.24	1054.0	866.3
94.25	1049.0	866.3
94.26	1063.0	866.3
94.27	1077.0	866.3
94.28	1072.0	866.3
94.29	1069.0	866.4
94.3	1031.0	866.4
94.31	1018.0	866.4
94.32	1014.0	866.4
94.33	1028.0	866.4
94.34	1040.0	866.4
94.35	1010.0	866.4
94.36	1011.0	866.4
94.37	1028.0	866.5
94.38	1021.0	866.5
94.39	1000.0	866.5
94.4	1008.0	866.5
94.41	1041.0	866.5
94.42	1006.0	866.5
94.43	1009.0	866.5
94.44	1017.0	866.5
94.45	1009.0	866.6
94.46	989.0	866.6
94.47	977.0	866.6
94.48	995.0	866.6
94.49	1008.0	866.6
94.5	1016.0	866.6
94.51	1033.0	866.6
94.52	1005.0	866.7
94.53	976.0	866.7
94.54	1001.0	866.7
94.55	979.0	866.7
94.56	976.0	866.7
94.57	999.0	866.7
94.58	986.0	866.7
94.59	974.0	866.8
94.6	980.0	866.8
94.61	1015.0	866.8
94.62	1036.0	866.8
94.63	1010.0	866.8
94.64	981.0	866.8
94.65	979.0	866.8
94.66	1023.0	866.9
94.67	991.0	866.9
94.68	984.0	866.9
94.69	1003.0	866.9
94.7	1000.0	866.9
94.71	968.0	866.9
94.72	967.0	867.0
94.73	987.0	867.0
94.74	1018.0	867.0
94.75	1000.0	867.0
94.76	988.0	867.0
94.77	987.0	867.0
94.78	963.0	867.0
94.79	975.0	867.1
94.8	992.0	867.1
94.81	990.0	867.1
94.82	980.0	867.1
94.83	961.0	867.1
94.84	965.0	867.1
94.85	968.0	867.2
94.86	986.0	867.2
94.87	997.0	867.2
94.88	971.0	867.2
94.89	960.0	867.2
94.9	958.0	867.3
94.91	960.0	867.3
94.92	992.0	867.3
94.93	960.0	867.3
94.94	914.0	867.3
94.95	930.0	867.3
94.96	952.0	867.4
94.97	935.0	867.4
94.98	930.0	867.4
94.99	940.0	867.4
95.0	942.0	867.4
95.01	966.0	867.5
95.02	979.0	867.5
95.03	967.0	867.5
95.04	981.0	867.5
95.05	968.0	867.5
95.06	970.0	867.5
95.07	980.0	867.6
95.08	998.0	867.6
95.09	987.0	867.6
95.1	964.0	867.6
95.11	951.0	867.6
95.12	937.0	867.7
95.13	966.0	867.7
95.14	989.0	867.7
95.15	969.0	867.7
95.16	962.0	867.7
95.17	968.0	867.8
95.18	989.0	867.8
95.19	988.0	867.8
95.2	976.0	867.8
95.21	947.0	867.8
95.22	974.0	867.9
95.23	1001.0	867.9
95.24	978.0	867.9
95.25	986.0	867.9
95.26	1004.0	868.0
95.27	1003.0	868.0
95.28	993.0	868.0
95.29	953.0	868.0
95.3	937.0	868.0
95.31	976.0	868.1
95.32	995.0	868.1
95.33	964.0	868.1
95.34	937.0	868.1
95.35	971.0	868.1
95.36	973.0	868.2
95.37	995.0	868.2
95.38	1014.0	868.2
95.39	1017.0	868.2
95.4	969.0	868.3
95.41	959.0	868.3
95.42	979.0	868.3
95.43	977.0	868.3
95.44	962.0	868.3
95.45	975.0	868.4
95.46	1001.0	868.4
95.47	994.0	868.4
95.48	962.0	868.4
95.49	961.0	868.5
95.5	947.0	868.5
95.51	957.0	868.5
95.52	996.0	868.5
95.53	966.0	868.6
95.54	950.0	868.6
95.55	976.0	868.6
95.56	964.0	868.6
95.57	966.0	868.6
95.58	935.0	868.7
95.59	936.0	868.7
95.6	980.0	868.7
95.61	1018.0	868.7
95.62	987.0	868.8
95.63	934.0	868.8
95.64	936.0	868.8
95.65	967.0	868.8
95.66	979.0	868.9
95.67	993.0	868.9
95.68	988.0	868.9
95.69	1000.0	868.9
95.7	977.0	869.0
95.71	945.0	869.0
95.72	938.0	869.0
95.73	961.0	869.0
95.74	993.0	869.1
95.75	986.0	869.1
95.76	962.0	869.1
95.77	946.0	869.1
95.78	924.0	869.2
95.79	962.0	869.2
95.8	978.0	869.2
95.81	946.0	869.2
95.82	926.0	869.3
95.83	934.0	869.3
95.84	935.0	869.3
95.85	954.0	869.3
95.86	953.0	869.4
95.87	950.0	869.4
95.88	968.0	869.4
95.89	977.0	869.4
95.9	936.0	869.5
95.91	953.0	869.5
95.92	972.0	869.5
95.93	950.0	869.6
95.94	954.0	869.6
95.95	954.0	869.6
95.96	951.0	869.6
95.97	975.0	869.7
95.98	974.0	869.7
95.99	945.0	869.7
96.0	955.0	869.7
96.01	960.0	869.8
96.02	966.0	869.8
96.03	964.0	869.8
96.04	958.0	869.9
96.05	933.0	869.9
96.06	930.0	869.9
96.07	932.0	869.9
96.08	920.0	870.0
96.09	901.0	870.0
96.1	914.0	870.0
96.11	946.0	870.0
96.12	982.0	870.1
96.13	1001.0	870.1
96.14	990.0	870.1
96.15	925.0	870.2
96.16	907.0	870.2
96.17	901.0	870.2
96.18	912.0	870.2
96.19	923.0	870.3
96.2	948.0	870.3
96.21	913.0	870.3
96.22	932.0	870.4
96.23	934.0	870.4
96.24	938.0	870.4
96.25	942.0	870.4
96.26	937.0	870.5
96.27	916.0	870.5
96.28	905.0	870.5
96.29	917.0	870.6
96.3	935.0	870.6
96.31	920.0	870.6
96.32	920.0	870.7
96.33	929.0	870.7
96.34	920.0	870.7
96.35	920.0	870.7
96.36	909.0	870.8
96.37	912.0	870.8
96.38	943.0	870.8
96.39	925.0	870.9
96.4	935.0	870.9
96.41	931.0	870.9
96.42	921.0	871.0
96.43	936.0	871.0
96.44	932.0	871.0
96.45	922.0	871.0
96.46	924.0	871.1
96.47	925.0	871.1
96.48	905.0	871.1
96.49	891.0	871.2
96.5	914.0	871.2
96.51	932.0	871.2
96.52	942.0	871.3
96.53	954.0	871.3
96.54	932.0	871.3
96.55	941.0	871.3
96.56	925.0	871.4
96.57	929.0	871.4
96.58	925.0	871.4
96.59	854.0	871.5
96.6	872.0	871.5
96.61	879.0	871.5
96.62	859.0	871.6
96.63	890.0	871.6
96.64	893.0	871.6
96.65	929.0	871.7
96.66	953.0	871.7
96.67	921.0	871.7
96.68	912.0	871.8
96.69	919.0	871.8
96.7	913.0	871.8
96.71	908.0	871.9
96.72	876.0	871.9
96.73	875.0	871.9
96.74	883.0	872.0
96.75	894.0	872.0
96.76	878.0	872.0
96.77	867.0	872.0
96.78	895.0	872.1
96.79	931.0	872.1
96.8	910.0	872.1
96.81	873.0	872.2
96.82	882.0	872.2
96.83	956.0	872.2
96.84	959.0	872.3
96.85	925.0	872.3
96.86	914.0	872.3
96.87	920.0	872.4
96.88	918.0	872.4
96.89	931.0	872.4
96.9	948.0	872.5
96.91	935.0	872.5
96.92	945.0	872.5
96.93	940.0	872.6
96.94	945.0	872.6
96.95	940.0	872.6
96.96	922.0	872.7
96.97	923.0	872.7
96.98	928.0	872.7
96.99	911.0	872.8
97.0	922.0	872.8
97.01	936.0	872.8
97.02	921.0	872.9
97.03	888.0	872.9
97.04	908.0	872.9
97.05	944.0	873.0
97.06	945.0	873.0
97.07	931.0	873.0
97.08	942.0	873.1
97.09	928.0	873.1
97.1	921.0	873.2
97.11	943.0	873.2
97.12	964.0	873.2
97.13	938.0	873.3
97.14	904.0	873.3
97.15	927.0	873.3
97.16	981.0	873.4
97.17	974.0	873.4
97.18	970.0	873.4
97.19	969.0	873.5
97.2	954.0	873.5
97.21	920.0	873.5
97.22	930.0	873.6
97.23	925.0	873.6
97.24	938.0	873.6
97.25	959.0	873.7
97.26	928.0	873.7
97.27	891.0	873.7
97.28	923.0	873.8
97.29	925.0	873.8
97.3	913.0	873.8
97.31	891.0	873.9
97.32	928.0	873.9
97.33	972.0	874.0
97.34	977.0	874.0
97.35	945.0	874.0
97.36	913.0	874.1
97.37	930.0	874.1
97.38	927.0	874.1
97.39	960.0	874.2
97.4	938.0	874.2
97.41	914.0	874.2
97.42	954.0	874.3
97.43	947.0	874.3
97.44	926.0	874.3
97.45	897.0	874.4
97.46	943.0	874.4
97.47	927.0	874.5
97.48	923.0	874.5
97.49	939.0	874.5
97.5	928.0	874.6
97.51	937.0	874.6
97.52	922.0	874.6
97.53	930.0	874.7
97.54	957.0	874.7
97.55	935.0	874.8
97.56	927.0	874.8
97.57	956.0	874.8
97.58	934.0	874.9
97.59	917.0	874.9
97.6	905.0	874.9
97.61	923.0	875.0
97.62	929.0	875.0
97.63	902.0	875.0
97.64	936.0	875.1
97.65	946.0	875.1
97.66	900.0	875.2
97.67	926.0	875.2
97.68	942.0	875.2
97.69	927.0	875.3
97.7	915.0	875.3
97.71	910.0	875.3
97.72	951.0	875.4
97.73	983.0	875.4
97.74	962.0	875.5
97.75	959.0	875.5
97.76	923.0	875.5
97.77	892.0	875.6
97.78	916.0	875.6
97.79	920.0	875.6
97.8	913.0	875.7
97.81	913.0	875.7
97.82	898.0	875.8
97.83	920.0	875.8
97.84	921.0	875.8
97.85	908.0	875.9
97.86	919.0	875.9
97.87	954.0	875.9
97.88	907.0	876.0
97.89	899.0	876.0
97.9	924.0	876.1
97.91	946.0	876.1
97.92	945.0	876.1
97.93	923.0	876.2
97.94	958.0	876.2
97.95	944.0	876.3
97.96	932.0	876.3
97.97	954.0	876.3
97.98	957.0	876.4
97.99	938.0	876.4
98.0	938.0	876.4
98.01	924.0	876.5
98.02	931.0	876.5
98.03	948.0	876.6
98.04	948.0	876.6
98.05	965.0	876.6
98.06	950.0	876.7
98.07	930.0	876.7
98.08	910.0	876.8
98.09	945.0	876.8
98.1	957.0	876.8
98.11	937.0	876.9
98.12	927.0	876.9
98.13	938.0	876.9
98.14	940.0	877.0
98.15	946.0	877.0
98.16	922.0	877.1
98.17	942.0	877.1
98.18	934.0	877.1
98.19	942.0	877.2
98.2	963.0	877.2
98.21	930.0	877.3
98.22	938.0	877.3
98.23	944.0	877.3
98.24	948.0	877.4
98.25	936.0	877.4
98.26	941.0	877.5
98.27	951.0	877.5
98.28	940.0	877.5
98.29	982.0	877.6
98.3	954.0	877.6
98.31	959.0	877.7
98.32	971.0	877.7
98.33	961.0	877.7
98.34	929.0	877.8
98.35	944.0	877.8
98.36	979.0	877.9
98.37	974.0	877.9
98.38	982.0	877.9
98.39	988.0	878.0
98.4	965.0	878.0
98.41	968.0	878.1
98.42	948.0	878.1
98.43	916.0	878.1
98.44	925.0	878.2
98.45	922.0	878.2
98.46	963.0	878.3
98.47	958.0	878.3
98.48	1009.0	878.3
98.49	999.0	878.4
98.5	958.0	878.4
98.51	982.0	878.5
98.52	1029.0	878.5
98.53	1053.0	878.5
98.54	1035.0	878.6
98.55	976.0	878.6
98.56	954.0	878.7
98.57	971.0	878.7
98.58	955.0	878.7
98.59	949.0	878.8
98.6	961.0	878.8
98.61	990.0	878.9
98.62	1007.0	878.9
98.63	979.0	878.9
98.64	987.0	879.0
98.65	1009.0	879.0
98.66	980.0	879.1
98.67	976.0	879.1
98.68	1005.0	879.1
98.69	1056.0	879.2
98.7	1021.0	879.2
98.71	1043.0	879.3
98.72	1030.0	879.3
98.73	1023.0	879.3
98.74	1053.0	879.4
98.75	1052.0	879.4
98.76	1033.0	879.5
98.77	1006.0	879.5
98.78	992.0	879.6
98.79	986.0	879.6
98.8	998.0	879.6
98.81	984.0	879.7
98.82	1005.0	879.7
98.83	1002.0	879.8
98.84	984.0	879.8
98.85	991.0	879.8
98.86	1007.0	879.9
98.87	1023.0	879.9
98.88	975.0	880.0
98.89	966.0	880.0
98.9	943.0	880.0
98.91	994.0	880.1
98.92	988.0	880.1
98.93	992.0	880.2
98.94	1035.0	880.2
98.95	991.0	880.2
98.96	980.0	880.3
98.97	984.0	880.3
98.98	991.0	880.4
98.99	948.0	880.4
99.0	985.0	880.5
99.01	987.0	880.5
99.02	983.0	880.5
99.03	991.0	880.6
99.04	987.0	880.6
99.05	967.0	880.7
99.06	960.0	880.7
99.07	963.0	880.7
99.08	992.0	880.8
99.09	998.0	880.8
99.1	951.0	880.9
99.11	944.0	880.9
99.12	949.0	881.0
99.13	952.0	881.0
99.14	1000.0	881.0
99.15	989.0	881.1
99.16	967.0	881.1
99.17	946.0	881.2
99.18	960.0	881.2
99.19	961.0	881.2
99.2	932.0	881.3
99.21	941.0	881.3
99.22	980.0	881.4
99.23	950.0	881.4
99.24	936.0	881.5
99.25	938.0	881.5
99.26	935.0	881.5
99.27	955.0	881.6
99.28	953.0	881.6
99.29	927.0	881.7
99.3	960.0	881.7
99.31	966.0	881.7
99.32	984.0	881.8
99.33	988.0	881.8
99.34	934.0	881.9
99.35	961.0	881.9
99.36	929.0	882.0
99.37	923.0	882.0
99.38	914.0	882.0
99.39	912.0	882.1
99.4	956.0	882.1
99.41	989.0	882.2
99.42	998.0	882.2
99.43	999.0	882.3
99.44	973.0	882.3
99.45	948.0	882.3
99.46	944.0	882.4
99.47	948.0	882.4
99.48	965.0	882.5
99.49	949.0	882.5
99.5	966.0	882.5
99.51	978.0	882.6
99.52	909.0	882.6
99.53	918.0	882.7
99.54	951.0	882.7
99.55	963.0	882.8
99.56	906.0	882.8
99.57	923.0	882.8
99.58	936.0	882.9
99.59	931.0	882.9
99.6	938.0	883.0
99.61	951.0	883.0
99.62	963.0	883.1
99.63	946.0	883.1
99.64	957.0	883.1
99.65	954.0	883.2
99.66	925.0	883.2
99.67	926.0	883.3
99.68	929.0	883.3
99.69	911.0	883.3
99.7	931.0	883.4
99.71	929.0	883.4
99.72	929.0	883.5
99.73	919.0	883.5
99.74	901.0	883.6
99.75	949.0	883.6
99.76	962.0	883.6
99.77	917.0	883.7
99.78	929.0	883.7
99.79	948.0	883.8
99.8	970.0	883.8
99.81	942.0	883.9
99.82	981.0	883.9
99.83	998.0	883.9
99.84	942.0	884.0
99.85	939.0	884.0
99.86	922.0	884.1
99.87	897.0	884.1
99.88	933.0	884.1
99.89	948.0	884.2
99.9	927.0	884.2
99.91	942.0	884.3
99.92	967.0	884.3
99.93	949.0	884.4
99.94	954.0	884.4
99.95	950.0	884.4
99.96	940.0	884.5
99.97	950.0	884.5
99.98	989.0	884.6
99.99	989.0	884.6
100.0	976.0	884.7
