Offstoi_LiMnTiO4_900
Wavelength = 1.54059 Ã… (Cu)
10.0	1721.0
10.01	1702.0
10.02	1686.0
10.03	1727.0
10.04	1781.0
10.05	1802.0
10.06	1749.0
10.07	1709.0
10.08	1700.0
10.09	1685.0
10.1	1789.0
10.11	1767.0
10.12	1735.0
10.13	1683.0
10.14	1767.0
10.15	1732.0
10.16	1719.0
10.17	1700.0
10.18	1704.0
10.19	1730.0
10.2	1795.0
10.21	1780.0
10.22	1770.0
10.23	1719.0
10.24	1708.0
10.25	1742.0
10.26	1739.0
10.27	1728.0
10.28	1724.0
10.29	1744.0
10.3	1709.0
10.31	1744.0
10.32	1745.0
10.33	1742.0
10.34	1719.0
10.35	1771.0
10.36	1727.0
10.37	1699.0
10.38	1732.0
10.39	1708.0
10.4	1700.0
10.41	1735.0
10.42	1747.0
10.43	1759.0
10.44	1725.0
10.45	1778.0
10.46	1769.0
10.47	1806.0
10.48	1787.0
10.49	1726.0
10.5	1697.0
10.51	1799.0
10.52	1796.0
10.53	1794.0
10.54	1769.0
10.55	1761.0
10.56	1766.0
10.57	1760.0
10.58	1774.0
10.59	1760.0
10.6	1801.0
10.61	1798.0
10.62	1834.0
10.63	1733.0
10.64	1702.0
10.65	1773.0
10.66	1806.0
10.67	1809.0
10.68	1778.0
10.69	1765.0
10.7	1756.0
10.71	1824.0
10.72	1814.0
10.73	1750.0
10.74	1787.0
10.75	1791.0
10.76	1774.0
10.77	1786.0
10.78	1777.0
10.79	1746.0
10.8	1754.0
10.81	1794.0
10.82	1763.0
10.83	1781.0
10.84	1776.0
10.85	1782.0
10.86	1769.0
10.87	1779.0
10.88	1790.0
10.89	1804.0
10.9	1833.0
10.91	1794.0
10.92	1798.0
10.93	1760.0
10.94	1791.0
10.95	1740.0
10.96	1724.0
10.97	1785.0
10.98	1867.0
10.99	1810.0
11.0	1732.0
11.01	1773.0
11.02	1811.0
11.03	1865.0
11.04	1841.0
11.05	1813.0
11.06	1789.0
11.07	1795.0
11.08	1830.0
11.09	1840.0
11.1	1770.0
11.11	1804.0
11.12	1816.0
11.13	1807.0
11.14	1834.0
11.15	1817.0
11.16	1804.0
11.17	1840.0
11.18	1760.0
11.19	1818.0
11.2	1802.0
11.21	1806.0
11.22	1886.0
11.23	1822.0
11.24	1796.0
11.25	1814.0
11.26	1822.0
11.27	1839.0
11.28	1869.0
11.29	1899.0
11.3	1859.0
11.31	1825.0
11.32	1838.0
11.33	1869.0
11.34	1863.0
11.35	1833.0
11.36	1759.0
11.37	1802.0
11.38	1856.0
11.39	1884.0
11.4	1855.0
11.41	1797.0
11.42	1829.0
11.43	1881.0
11.44	1879.0
11.45	1839.0
11.46	1834.0
11.47	1841.0
11.48	1868.0
11.49	1869.0
11.5	1889.0
11.51	1909.0
11.52	1871.0
11.53	1833.0
11.54	1830.0
11.55	1847.0
11.56	1853.0
11.57	1854.0
11.58	1893.0
11.59	1884.0
11.6	1862.0
11.61	1866.0
11.62	1880.0
11.63	1841.0
11.64	1831.0
11.65	1833.0
11.66	1839.0
11.67	1851.0
11.68	1878.0
11.69	1876.0
11.7	1892.0
11.71	1888.0
11.72	1875.0
11.73	1855.0
11.74	1867.0
11.75	1856.0
11.76	1863.0
11.77	1909.0
11.78	1901.0
11.79	1845.0
11.8	1853.0
11.81	1810.0
11.82	1850.0
11.83	1923.0
11.84	1959.0
11.85	1904.0
11.86	1869.0
11.87	1863.0
11.88	1880.0
11.89	1830.0
11.9	1910.0
11.91	1907.0
11.92	1890.0
11.93	1912.0
11.94	1873.0
11.95	1907.0
11.96	1915.0
11.97	1949.0
11.98	1933.0
11.99	1892.0
12.0	1930.0
12.01	1920.0
12.02	1908.0
12.03	1914.0
12.04	1874.0
12.05	1916.0
12.06	1932.0
12.07	1948.0
12.08	1917.0
12.09	1880.0
12.1	1940.0
12.11	1929.0
12.12	1915.0
12.13	1941.0
12.14	1959.0
12.15	1939.0
12.16	1918.0
12.17	1893.0
12.18	1858.0
12.19	1877.0
12.2	1930.0
12.21	1929.0
12.22	1960.0
12.23	1922.0
12.24	1872.0
12.25	1895.0
12.26	1918.0
12.27	1924.0
12.28	1962.0
12.29	1979.0
12.3	1965.0
12.31	1971.0
12.32	1985.0
12.33	1946.0
12.34	1973.0
12.35	1972.0
12.36	1947.0
12.37	1952.0
12.38	1896.0
12.39	1920.0
12.4	1982.0
12.41	1951.0
12.42	1926.0
12.43	1959.0
12.44	1993.0
12.45	2000.0
12.46	1934.0
12.47	1955.0
12.48	1961.0
12.49	1906.0
12.5	1890.0
12.51	1933.0
12.52	1996.0
12.53	1967.0
12.54	1942.0
12.55	1976.0
12.56	1983.0
12.57	1977.0
12.58	1939.0
12.59	1922.0
12.6	1952.0
12.61	1947.0
12.62	1952.0
12.63	1985.0
12.64	2005.0
12.65	1973.0
12.66	1987.0
12.67	1928.0
12.68	1983.0
12.69	1986.0
12.7	1943.0
12.71	1976.0
12.72	1969.0
12.73	1946.0
12.74	1977.0
12.75	2020.0
12.76	2013.0
12.77	1977.0
12.78	1993.0
12.79	1992.0
12.8	1979.0
12.81	1934.0
12.82	1926.0
12.83	1905.0
12.84	1931.0
12.85	1991.0
12.86	1995.0
12.87	2074.0
12.88	2076.0
12.89	2062.0
12.9	2028.0
12.91	2042.0
12.92	2023.0
12.93	2032.0
12.94	1973.0
12.95	2025.0
12.96	2054.0
12.97	2011.0
12.98	1992.0
12.99	2021.0
13.0	2019.0
13.01	1994.0
13.02	1991.0
13.03	2036.0
13.04	2013.0
13.05	1975.0
13.06	2066.0
13.07	1999.0
13.08	1996.0
13.09	2040.0
13.1	2029.0
13.11	2008.0
13.12	2031.0
13.13	2036.0
13.14	2067.0
13.15	2035.0
13.16	2007.0
13.17	2006.0
13.18	2018.0
13.19	1988.0
13.2	2006.0
13.21	1987.0
13.22	1998.0
13.23	2018.0
13.24	2083.0
13.25	2069.0
13.26	2045.0
13.27	1997.0
13.28	2029.0
13.29	2010.0
13.3	2059.0
13.31	2082.0
13.32	2042.0
13.33	2037.0
13.34	2030.0
13.35	2046.0
13.36	2062.0
13.37	2080.0
13.38	2066.0
13.39	2033.0
13.4	2019.0
13.41	2018.0
13.42	2052.0
13.43	2125.0
13.44	2069.0
13.45	2048.0
13.46	2013.0
13.47	2100.0
13.48	2083.0
13.49	2032.0
13.5	2008.0
13.51	2055.0
13.52	2073.0
13.53	2085.0
13.54	2025.0
13.55	2087.0
13.56	2113.0
13.57	2082.0
13.58	2048.0
13.59	2125.0
13.6	2115.0
13.61	2070.0
13.62	2078.0
13.63	2088.0
13.64	2110.0
13.65	2117.0
13.66	2025.0
13.67	2051.0
13.68	2063.0
13.69	2057.0
13.7	2081.0
13.71	2103.0
13.72	2105.0
13.73	2162.0
13.74	2136.0
13.75	2093.0
13.76	2069.0
13.77	2107.0
13.78	2085.0
13.79	2092.0
13.8	2110.0
13.81	2078.0
13.82	2074.0
13.83	2055.0
13.84	1999.0
13.85	2074.0
13.86	2114.0
13.87	2142.0
13.88	2067.0
13.89	2057.0
13.9	2098.0
13.91	2103.0
13.92	2089.0
13.93	2121.0
13.94	2120.0
13.95	2085.0
13.96	2134.0
13.97	2127.0
13.98	2119.0
13.99	2116.0
14.0	2135.0
14.01	2114.0
14.02	2117.0
14.03	2101.0
14.04	2076.0
14.05	2091.0
14.06	2095.0
14.07	2073.0
14.08	2053.0
14.09	2111.0
14.1	2134.0
14.11	2160.0
14.12	2143.0
14.13	2137.0
14.14	2132.0
14.15	2089.0
14.16	2113.0
14.17	2138.0
14.18	2149.0
14.19	2142.0
14.2	2101.0
14.21	2119.0
14.22	2146.0
14.23	2142.0
14.24	2159.0
14.25	2172.0
14.26	2150.0
14.27	2106.0
14.28	2107.0
14.29	2171.0
14.3	2172.0
14.31	2163.0
14.32	2111.0
14.33	2096.0
14.34	2142.0
14.35	2167.0
14.36	2172.0
14.37	2140.0
14.38	2149.0
14.39	2158.0
14.4	2152.0
14.41	2111.0
14.42	2110.0
14.43	2119.0
14.44	2093.0
14.45	2087.0
14.46	2054.0
14.47	2028.0
14.48	2072.0
14.49	2145.0
14.5	2165.0
14.51	2095.0
14.52	2095.0
14.53	2145.0
14.54	2105.0
14.55	2106.0
14.56	2098.0
14.57	2143.0
14.58	2125.0
14.59	2127.0
14.6	2120.0
14.61	2095.0
14.62	2083.0
14.63	2110.0
14.64	2113.0
14.65	2121.0
14.66	2136.0
14.67	2139.0
14.68	2117.0
14.69	2130.0
14.7	2117.0
14.71	2146.0
14.72	2136.0
14.73	2110.0
14.74	2108.0
14.75	2118.0
14.76	2159.0
14.77	2122.0
14.78	2122.0
14.79	2120.0
14.8	2117.0
14.81	2127.0
14.82	2116.0
14.83	2105.0
14.84	2107.0
14.85	2117.0
14.86	2098.0
14.87	2079.0
14.88	2130.0
14.89	2140.0
14.9	2131.0
14.91	2136.0
14.92	2136.0
14.93	2146.0
14.94	2124.0
14.95	2114.0
14.96	2162.0
14.97	2149.0
14.98	2097.0
14.99	2135.0
15.0	2150.0
15.01	2143.0
15.02	2088.0
15.03	2081.0
15.04	2108.0
15.05	2132.0
15.06	2122.0
15.07	2119.0
15.08	2109.0
15.09	2107.0
15.1	2156.0
15.11	2161.0
15.12	2118.0
15.13	2158.0
15.14	2176.0
15.15	2159.0
15.16	2104.0
15.17	2081.0
15.18	2107.0
15.19	2104.0
15.2	2124.0
15.21	2142.0
15.22	2123.0
15.23	2106.0
15.24	2098.0
15.25	2104.0
15.26	2099.0
15.27	2087.0
15.28	2077.0
15.29	2092.0
15.3	2113.0
15.31	2152.0
15.32	2138.0
15.33	2097.0
15.34	2122.0
15.35	2152.0
15.36	2071.0
15.37	2065.0
15.38	2078.0
15.39	2133.0
15.4	2144.0
15.41	2109.0
15.42	2142.0
15.43	2147.0
15.44	2074.0
15.45	2059.0
15.46	2098.0
15.47	2139.0
15.48	2124.0
15.49	2085.0
15.5	2108.0
15.51	2125.0
15.52	2085.0
15.53	2063.0
15.54	2081.0
15.55	2112.0
15.56	2136.0
15.57	2123.0
15.58	2128.0
15.59	2132.0
15.6	2083.0
15.61	2094.0
15.62	2051.0
15.63	2074.0
15.64	2122.0
15.65	2113.0
15.66	2074.0
15.67	2079.0
15.68	2110.0
15.69	2124.0
15.7	2151.0
15.71	2103.0
15.72	2091.0
15.73	2106.0
15.74	2076.0
15.75	2082.0
15.76	2116.0
15.77	2101.0
15.78	2042.0
15.79	2064.0
15.8	2112.0
15.81	2075.0
15.82	2072.0
15.83	2079.0
15.84	2120.0
15.85	2122.0
15.86	2045.0
15.87	2042.0
15.88	2051.0
15.89	2075.0
15.9	2069.0
15.91	2057.0
15.92	2087.0
15.93	2107.0
15.94	2086.0
15.95	2061.0
15.96	2061.0
15.97	2078.0
15.98	2094.0
15.99	2080.0
16.0	2065.0
16.01	2089.0
16.02	2083.0
16.03	2056.0
16.04	2070.0
16.05	2085.0
16.06	2115.0
16.07	2111.0
16.08	2089.0
16.09	2078.0
16.1	2123.0
16.11	2139.0
16.12	2099.0
16.13	2066.0
16.14	2078.0
16.15	2105.0
16.16	2112.0
16.17	2104.0
16.18	2081.0
16.19	2055.0
16.2	2046.0
16.21	2081.0
16.22	2094.0
16.23	2112.0
16.24	2107.0
16.25	2083.0
16.26	2128.0
16.27	2121.0
16.28	2056.0
16.29	2088.0
16.3	2107.0
16.31	2078.0
16.32	2086.0
16.33	2079.0
16.34	2076.0
16.35	2066.0
16.36	2043.0
16.37	2020.0
16.38	2056.0
16.39	2084.0
16.4	2089.0
16.41	2100.0
16.42	2115.0
16.43	2079.0
16.44	2081.0
16.45	2082.0
16.46	2014.0
16.47	2045.0
16.48	2085.0
16.49	2054.0
16.5	2022.0
16.51	2018.0
16.52	2011.0
16.53	2009.0
16.54	2048.0
16.55	2088.0
16.56	2104.0
16.57	2092.0
16.58	2069.0
16.59	2064.0
16.6	2065.0
16.61	2057.0
16.62	2054.0
16.63	2049.0
16.64	2067.0
16.65	2103.0
16.66	2119.0
16.67	2083.0
16.68	2054.0
16.69	2081.0
16.7	2069.0
16.71	2012.0
16.72	1999.0
16.73	2040.0
16.74	2050.0
16.75	2035.0
16.76	2032.0
16.77	2058.0
16.78	2067.0
16.79	2037.0
16.8	2031.0
16.81	2034.0
16.82	2055.0
16.83	2069.0
16.84	2054.0
16.85	2037.0
16.86	2019.0
16.87	1977.0
16.88	2009.0
16.89	2061.0
16.9	2044.0
16.91	2028.0
16.92	2023.0
16.93	2069.0
16.94	2105.0
16.95	2086.0
16.96	2067.0
16.97	2044.0
16.98	2042.0
16.99	2056.0
17.0	2044.0
17.01	2052.0
17.02	2082.0
17.03	2058.0
17.04	2008.0
17.05	2015.0
17.06	2026.0
17.07	2040.0
17.08	2057.0
17.09	2036.0
17.1	2064.0
17.11	2073.0
17.12	2023.0
17.13	2034.0
17.14	2054.0
17.15	2057.0
17.16	2067.0
17.17	2049.0
17.18	2038.0
17.19	2036.0
17.2	2060.0
17.21	2088.0
17.22	2060.0
17.23	2010.0
17.24	2015.0
17.25	2038.0
17.26	2052.0
17.27	2044.0
17.28	2015.0
17.29	2022.0
17.3	2057.0
17.31	2082.0
17.32	2102.0
17.33	2084.0
17.34	2064.0
17.35	2049.0
17.36	2013.0
17.37	1982.0
17.38	2012.0
17.39	2050.0
17.4	2033.0
17.41	2005.0
17.42	1996.0
17.43	2016.0
17.44	2053.0
17.45	2071.0
17.46	2064.0
17.47	2034.0
17.48	2006.0
17.49	1994.0
17.5	2012.0
17.51	2011.0
17.52	2000.0
17.53	2026.0
17.54	2070.0
17.55	2079.0
17.56	2049.0
17.57	2044.0
17.58	2023.0
17.59	2010.0
17.6	2024.0
17.61	2041.0
17.62	2049.0
17.63	2035.0
17.64	2028.0
17.65	2025.0
17.66	2020.0
17.67	2027.0
17.68	2027.0
17.69	2024.0
17.7	2024.0
17.71	2038.0
17.72	2078.0
17.73	2084.0
17.74	2075.0
17.75	2086.0
17.76	2073.0
17.77	2072.0
17.78	2033.0
17.79	2006.0
17.8	2030.0
17.81	2042.0
17.82	2080.0
17.83	2101.0
17.84	2061.0
17.85	2033.0
17.86	2044.0
17.87	2042.0
17.88	2016.0
17.89	2013.0
17.9	2031.0
17.91	2059.0
17.92	2092.0
17.93	2123.0
17.94	2132.0
17.95	2124.0
17.96	2150.0
17.97	2153.0
17.98	2166.0
17.99	2162.0
18.0	2153.0
18.01	2191.0
18.02	2221.0
18.03	2207.0
18.04	2193.0
18.05	2220.0
18.06	2220.0
18.07	2213.0
18.08	2265.0
18.09	2309.0
18.1	2304.0
18.11	2310.0
18.12	2356.0
18.13	2427.0
18.14	2483.0
18.15	2514.0
18.16	2530.0
18.17	2572.0
18.18	2664.0
18.19	2766.0
18.2	2856.0
18.21	2968.0
18.22	3084.0
18.23	3242.0
18.24	3404.0
18.25	3548.0
18.26	3774.0
18.27	4061.0
18.28	4378.0
18.29	4727.0
18.3	5138.0
18.31	5553.0
18.32	6017.0
18.33	6541.0
18.34	7065.0
18.35	7556.0
18.36	7843.0
18.37	7898.0
18.38	7770.0
18.39	7402.0
18.4	6790.0
18.41	6131.0
18.42	5489.0
18.43	4813.0
18.44	4229.0
18.45	3692.0
18.46	3215.0
18.47	2915.0
18.48	2698.0
18.49	2518.0
18.5	2403.0
18.51	2317.0
18.52	2275.0
18.53	2256.0
18.54	2213.0
18.55	2160.0
18.56	2125.0
18.57	2125.0
18.58	2130.0
18.59	2130.0
18.6	2136.0
18.61	2117.0
18.62	2132.0
18.63	2135.0
18.64	2110.0
18.65	2104.0
18.66	2088.0
18.67	2054.0
18.68	2043.0
18.69	2083.0
18.7	2079.0
18.71	2034.0
18.72	2017.0
18.73	2023.0
18.74	2041.0
18.75	2027.0
18.76	2002.0
18.77	1982.0
18.78	2006.0
18.79	2036.0
18.8	2037.0
18.81	2020.0
18.82	2012.0
18.83	2019.0
18.84	2001.0
18.85	1989.0
18.86	1978.0
18.87	1948.0
18.88	1962.0
18.89	1997.0
18.9	2031.0
18.91	2038.0
18.92	1972.0
18.93	1937.0
18.94	1960.0
18.95	1970.0
18.96	1935.0
18.97	1911.0
18.98	1890.0
18.99	1898.0
19.0	1927.0
19.01	1928.0
19.02	1941.0
19.03	1949.0
19.04	1936.0
19.05	1946.0
19.06	1923.0
19.07	1942.0
19.08	1978.0
19.09	1985.0
19.1	1955.0
19.11	1927.0
19.12	1927.0
19.13	1942.0
19.14	1987.0
19.15	1986.0
19.16	1947.0
19.17	1954.0
19.18	1948.0
19.19	1920.0
19.2	1933.0
19.21	1925.0
19.22	1922.0
19.23	1973.0
19.24	1960.0
19.25	1922.0
19.26	1925.0
19.27	1927.0
19.28	1924.0
19.29	1920.0
19.3	1931.0
19.31	1910.0
19.32	1916.0
19.33	1941.0
19.34	1954.0
19.35	1896.0
19.36	1847.0
19.37	1861.0
19.38	1927.0
19.39	1939.0
19.4	1916.0
19.41	1917.0
19.42	1897.0
19.43	1926.0
19.44	1916.0
19.45	1940.0
19.46	1940.0
19.47	1894.0
19.48	1881.0
19.49	1911.0
19.5	1924.0
19.51	1879.0
19.52	1860.0
19.53	1893.0
19.54	1887.0
19.55	1859.0
19.56	1894.0
19.57	1917.0
19.58	1926.0
19.59	1915.0
19.6	1903.0
19.61	1875.0
19.62	1861.0
19.63	1914.0
19.64	1958.0
19.65	1956.0
19.66	1905.0
19.67	1902.0
19.68	1926.0
19.69	1911.0
19.7	1891.0
19.71	1888.0
19.72	1848.0
19.73	1868.0
19.74	1888.0
19.75	1893.0
19.76	1913.0
19.77	1919.0
19.78	1885.0
19.79	1887.0
19.8	1903.0
19.81	1886.0
19.82	1847.0
19.83	1863.0
19.84	1869.0
19.85	1875.0
19.86	1832.0
19.87	1870.0
19.88	1890.0
19.89	1835.0
19.9	1845.0
19.91	1838.0
19.92	1812.0
19.93	1806.0
19.94	1857.0
19.95	1836.0
19.96	1816.0
19.97	1840.0
19.98	1851.0
19.99	1845.0
20.0	1878.0
20.01	1844.0
20.02	1848.0
20.03	1856.0
20.04	1861.0
20.05	1856.0
20.06	1820.0
20.07	1853.0
20.08	1855.0
20.09	1843.0
20.1	1831.0
20.11	1846.0
20.12	1862.0
20.13	1853.0
20.14	1858.0
20.15	1797.0
20.16	1773.0
20.17	1793.0
20.18	1789.0
20.19	1812.0
20.2	1848.0
20.21	1880.0
20.22	1850.0
20.23	1807.0
20.24	1789.0
20.25	1756.0
20.26	1784.0
20.27	1802.0
20.28	1782.0
20.29	1796.0
20.3	1770.0
20.31	1804.0
20.32	1818.0
20.33	1859.0
20.34	1837.0
20.35	1802.0
20.36	1812.0
20.37	1822.0
20.38	1810.0
20.39	1852.0
20.4	1850.0
20.41	1825.0
20.42	1772.0
20.43	1768.0
20.44	1829.0
20.45	1814.0
20.46	1804.0
20.47	1803.0
20.48	1808.0
20.49	1795.0
20.5	1752.0
20.51	1753.0
20.52	1805.0
20.53	1802.0
20.54	1801.0
20.55	1774.0
20.56	1810.0
20.57	1806.0
20.58	1791.0
20.59	1796.0
20.6	1809.0
20.61	1791.0
20.62	1778.0
20.63	1790.0
20.64	1843.0
20.65	1825.0
20.66	1796.0
20.67	1805.0
20.68	1779.0
20.69	1744.0
20.7	1747.0
20.71	1801.0
20.72	1802.0
20.73	1793.0
20.74	1766.0
20.75	1723.0
20.76	1749.0
20.77	1747.0
20.78	1707.0
20.79	1748.0
20.8	1757.0
20.81	1748.0
20.82	1753.0
20.83	1752.0
20.84	1728.0
20.85	1695.0
20.86	1741.0
20.87	1774.0
20.88	1788.0
20.89	1795.0
20.9	1793.0
20.91	1765.0
20.92	1726.0
20.93	1764.0
20.94	1728.0
20.95	1749.0
20.96	1707.0
20.97	1710.0
20.98	1727.0
20.99	1746.0
21.0	1745.0
21.01	1732.0
21.02	1756.0
21.03	1756.0
21.04	1734.0
21.05	1731.0
21.06	1753.0
21.07	1725.0
21.08	1736.0
21.09	1777.0
21.1	1756.0
21.11	1718.0
21.12	1757.0
21.13	1750.0
21.14	1729.0
21.15	1719.0
21.16	1734.0
21.17	1766.0
21.18	1764.0
21.19	1743.0
21.2	1715.0
21.21	1741.0
21.22	1718.0
21.23	1677.0
21.24	1693.0
21.25	1713.0
21.26	1719.0
21.27	1682.0
21.28	1732.0
21.29	1713.0
21.3	1703.0
21.31	1721.0
21.32	1735.0
21.33	1738.0
21.34	1717.0
21.35	1732.0
21.36	1708.0
21.37	1707.0
21.38	1729.0
21.39	1731.0
21.4	1753.0
21.41	1736.0
21.42	1699.0
21.43	1725.0
21.44	1773.0
21.45	1714.0
21.46	1687.0
21.47	1727.0
21.48	1714.0
21.49	1696.0
21.5	1672.0
21.51	1645.0
21.52	1656.0
21.53	1675.0
21.54	1713.0
21.55	1671.0
21.56	1675.0
21.57	1679.0
21.58	1701.0
21.59	1717.0
21.6	1712.0
21.61	1666.0
21.62	1626.0
21.63	1662.0
21.64	1685.0
21.65	1730.0
21.66	1698.0
21.67	1658.0
21.68	1646.0
21.69	1662.0
21.7	1676.0
21.71	1649.0
21.72	1619.0
21.73	1650.0
21.74	1684.0
21.75	1669.0
21.76	1671.0
21.77	1701.0
21.78	1653.0
21.79	1638.0
21.8	1648.0
21.81	1709.0
21.82	1702.0
21.83	1637.0
21.84	1625.0
21.85	1611.0
21.86	1644.0
21.87	1623.0
21.88	1612.0
21.89	1608.0
21.9	1642.0
21.91	1686.0
21.92	1613.0
21.93	1632.0
21.94	1627.0
21.95	1589.0
21.96	1592.0
21.97	1682.0
21.98	1668.0
21.99	1636.0
22.0	1606.0
22.01	1659.0
22.02	1653.0
22.03	1633.0
22.04	1646.0
22.05	1636.0
22.06	1658.0
22.07	1625.0
22.08	1627.0
22.09	1643.0
22.1	1643.0
22.11	1642.0
22.12	1624.0
22.13	1637.0
22.14	1664.0
22.15	1697.0
22.16	1619.0
22.17	1607.0
22.18	1614.0
22.19	1580.0
22.2	1591.0
22.21	1585.0
22.22	1626.0
22.23	1664.0
22.24	1653.0
22.25	1635.0
22.26	1670.0
22.27	1656.0
22.28	1635.0
22.29	1640.0
22.3	1653.0
22.31	1619.0
22.32	1611.0
22.33	1649.0
22.34	1653.0
22.35	1640.0
22.36	1610.0
22.37	1655.0
22.38	1675.0
22.39	1610.0
22.4	1671.0
22.41	1674.0
22.42	1667.0
22.43	1647.0
22.44	1652.0
22.45	1724.0
22.46	1687.0
22.47	1651.0
22.48	1678.0
22.49	1618.0
22.5	1656.0
22.51	1678.0
22.52	1643.0
22.53	1618.0
22.54	1613.0
22.55	1630.0
22.56	1639.0
22.57	1636.0
22.58	1626.0
22.59	1635.0
22.6	1641.0
22.61	1582.0
22.62	1580.0
22.63	1590.0
22.64	1602.0
22.65	1604.0
22.66	1599.0
22.67	1622.0
22.68	1632.0
22.69	1598.0
22.7	1618.0
22.71	1668.0
22.72	1648.0
22.73	1572.0
22.74	1585.0
22.75	1567.0
22.76	1585.0
22.77	1565.0
22.78	1586.0
22.79	1597.0
22.8	1576.0
22.81	1555.0
22.82	1607.0
22.83	1568.0
22.84	1558.0
22.85	1571.0
22.86	1596.0
22.87	1613.0
22.88	1583.0
22.89	1560.0
22.9	1559.0
22.91	1532.0
22.92	1474.0
22.93	1506.0
22.94	1524.0
22.95	1523.0
22.96	1535.0
22.97	1542.0
22.98	1530.0
22.99	1544.0
23.0	1547.0
23.01	1582.0
23.02	1568.0
23.03	1550.0
23.04	1556.0
23.05	1543.0
23.06	1513.0
23.07	1548.0
23.08	1558.0
23.09	1554.0
23.1	1549.0
23.11	1532.0
23.12	1482.0
23.13	1511.0
23.14	1538.0
23.15	1552.0
23.16	1541.0
23.17	1479.0
23.18	1533.0
23.19	1554.0
23.2	1560.0
23.21	1510.0
23.22	1507.0
23.23	1596.0
23.24	1510.0
23.25	1521.0
23.26	1489.0
23.27	1461.0
23.28	1511.0
23.29	1549.0
23.3	1547.0
23.31	1565.0
23.32	1472.0
23.33	1459.0
23.34	1500.0
23.35	1515.0
23.36	1514.0
23.37	1532.0
23.38	1490.0
23.39	1472.0
23.4	1535.0
23.41	1534.0
23.42	1469.0
23.43	1501.0
23.44	1497.0
23.45	1457.0
23.46	1528.0
23.47	1541.0
23.48	1488.0
23.49	1444.0
23.5	1485.0
23.51	1451.0
23.52	1474.0
23.53	1468.0
23.54	1445.0
23.55	1465.0
23.56	1496.0
23.57	1495.0
23.58	1498.0
23.59	1511.0
23.6	1505.0
23.61	1465.0
23.62	1496.0
23.63	1489.0
23.64	1498.0
23.65	1452.0
23.66	1436.0
23.67	1440.0
23.68	1473.0
23.69	1450.0
23.7	1446.0
23.71	1443.0
23.72	1479.0
23.73	1466.0
23.74	1479.0
23.75	1482.0
23.76	1446.0
23.77	1438.0
23.78	1439.0
23.79	1454.0
23.8	1477.0
23.81	1441.0
23.82	1465.0
23.83	1544.0
23.84	1515.0
23.85	1479.0
23.86	1459.0
23.87	1470.0
23.88	1513.0
23.89	1469.0
23.9	1508.0
23.91	1460.0
23.92	1429.0
23.93	1432.0
23.94	1462.0
23.95	1453.0
23.96	1421.0
23.97	1438.0
23.98	1452.0
23.99	1466.0
24.0	1483.0
24.01	1493.0
24.02	1467.0
24.03	1462.0
24.04	1431.0
24.05	1449.0
24.06	1419.0
24.07	1440.0
24.08	1435.0
24.09	1401.0
24.1	1426.0
24.11	1464.0
24.12	1462.0
24.13	1439.0
24.14	1443.0
24.15	1416.0
24.16	1443.0
24.17	1470.0
24.18	1429.0
24.19	1457.0
24.2	1501.0
24.21	1463.0
24.22	1435.0
24.23	1411.0
24.24	1384.0
24.25	1383.0
24.26	1421.0
24.27	1445.0
24.28	1437.0
24.29	1448.0
24.3	1476.0
24.31	1442.0
24.32	1413.0
24.33	1389.0
24.34	1400.0
24.35	1389.0
24.36	1383.0
24.37	1377.0
24.38	1416.0
24.39	1448.0
24.4	1443.0
24.41	1428.0
24.42	1441.0
24.43	1439.0
24.44	1418.0
24.45	1391.0
24.46	1398.0
24.47	1434.0
24.48	1398.0
24.49	1378.0
24.5	1356.0
24.51	1369.0
24.52	1404.0
24.53	1447.0
24.54	1412.0
24.55	1426.0
24.56	1408.0
24.57	1378.0
24.58	1408.0
24.59	1403.0
24.6	1415.0
24.61	1418.0
24.62	1433.0
24.63	1414.0
24.64	1353.0
24.65	1365.0
24.66	1433.0
24.67	1395.0
24.68	1359.0
24.69	1365.0
24.7	1438.0
24.71	1413.0
24.72	1388.0
24.73	1411.0
24.74	1388.0
24.75	1394.0
24.76	1424.0
24.77	1399.0
24.78	1378.0
24.79	1372.0
24.8	1381.0
24.81	1407.0
24.82	1400.0
24.83	1390.0
24.84	1390.0
24.85	1399.0
24.86	1389.0
24.87	1345.0
24.88	1323.0
24.89	1346.0
24.9	1367.0
24.91	1400.0
24.92	1388.0
24.93	1382.0
24.94	1381.0
24.95	1377.0
24.96	1398.0
24.97	1363.0
24.98	1375.0
24.99	1391.0
25.0	1380.0
25.01	1380.0
25.02	1352.0
25.03	1330.0
25.04	1368.0
25.05	1406.0
25.06	1411.0
25.07	1378.0
25.08	1331.0
25.09	1333.0
25.1	1353.0
25.11	1331.0
25.12	1319.0
25.13	1344.0
25.14	1355.0
25.15	1366.0
25.16	1389.0
25.17	1361.0
25.18	1327.0
25.19	1366.0
25.2	1406.0
25.21	1401.0
25.22	1364.0
25.23	1341.0
25.24	1333.0
25.25	1303.0
25.26	1313.0
25.27	1369.0
25.28	1380.0
25.29	1327.0
25.3	1292.0
25.31	1319.0
25.32	1339.0
25.33	1329.0
25.34	1333.0
25.35	1322.0
25.36	1323.0
25.37	1325.0
25.38	1314.0
25.39	1309.0
25.4	1314.0
25.41	1318.0
25.42	1355.0
25.43	1365.0
25.44	1337.0
25.45	1345.0
25.46	1347.0
25.47	1336.0
25.48	1353.0
25.49	1346.0
25.5	1341.0
25.51	1365.0
25.52	1327.0
25.53	1291.0
25.54	1316.0
25.55	1315.0
25.56	1333.0
25.57	1345.0
25.58	1323.0
25.59	1317.0
25.6	1337.0
25.61	1351.0
25.62	1341.0
25.63	1321.0
25.64	1306.0
25.65	1316.0
25.66	1338.0
25.67	1351.0
25.68	1325.0
25.69	1292.0
25.7	1326.0
25.71	1362.0
25.72	1348.0
25.73	1318.0
25.74	1310.0
25.75	1312.0
25.76	1307.0
25.77	1317.0
25.78	1303.0
25.79	1300.0
25.8	1290.0
25.81	1303.0
25.82	1330.0
25.83	1312.0
25.84	1295.0
25.85	1323.0
25.86	1308.0
25.87	1315.0
25.88	1337.0
25.89	1331.0
25.9	1311.0
25.91	1300.0
25.92	1295.0
25.93	1334.0
25.94	1369.0
25.95	1315.0
25.96	1291.0
25.97	1306.0
25.98	1266.0
25.99	1276.0
26.0	1276.0
26.01	1260.0
26.02	1293.0
26.03	1283.0
26.04	1282.0
26.05	1301.0
26.06	1323.0
26.07	1341.0
26.08	1302.0
26.09	1289.0
26.1	1306.0
26.11	1313.0
26.12	1312.0
26.13	1306.0
26.14	1268.0
26.15	1259.0
26.16	1280.0
26.17	1252.0
26.18	1249.0
26.19	1287.0
26.2	1311.0
26.21	1294.0
26.22	1280.0
26.23	1271.0
26.24	1278.0
26.25	1282.0
26.26	1282.0
26.27	1259.0
26.28	1255.0
26.29	1268.0
26.3	1289.0
26.31	1308.0
26.32	1287.0
26.33	1289.0
26.34	1305.0
26.35	1279.0
26.36	1259.0
26.37	1279.0
26.38	1271.0
26.39	1269.0
26.4	1284.0
26.41	1285.0
26.42	1287.0
26.43	1296.0
26.44	1294.0
26.45	1263.0
26.46	1253.0
26.47	1259.0
26.48	1228.0
26.49	1209.0
26.5	1235.0
26.51	1270.0
26.52	1272.0
26.53	1259.0
26.54	1245.0
26.55	1246.0
26.56	1260.0
26.57	1246.0
26.58	1236.0
26.59	1239.0
26.6	1244.0
26.61	1255.0
26.62	1262.0
26.63	1260.0
26.64	1241.0
26.65	1258.0
26.66	1262.0
26.67	1251.0
26.68	1251.0
26.69	1278.0
26.7	1295.0
26.71	1262.0
26.72	1234.0
26.73	1236.0
26.74	1271.0
26.75	1301.0
26.76	1284.0
26.77	1253.0
26.78	1254.0
26.79	1256.0
26.8	1230.0
26.81	1226.0
26.82	1276.0
26.83	1286.0
26.84	1253.0
26.85	1228.0
26.86	1210.0
26.87	1222.0
26.88	1239.0
26.89	1230.0
26.9	1231.0
26.91	1242.0
26.92	1237.0
26.93	1230.0
26.94	1224.0
26.95	1211.0
26.96	1207.0
26.97	1208.0
26.98	1202.0
26.99	1221.0
27.0	1240.0
27.01	1218.0
27.02	1208.0
27.03	1226.0
27.04	1238.0
27.05	1227.0
27.06	1244.0
27.07	1257.0
27.08	1245.0
27.09	1239.0
27.1	1222.0
27.11	1204.0
27.12	1191.0
27.13	1204.0
27.14	1222.0
27.15	1204.0
27.16	1192.0
27.17	1190.0
27.18	1180.0
27.19	1178.0
27.2	1169.0
27.21	1187.0
27.22	1208.0
27.23	1205.0
27.24	1205.0
27.25	1191.0
27.26	1166.0
27.27	1168.0
27.28	1205.0
27.29	1251.0
27.3	1251.0
27.31	1209.0
27.32	1214.0
27.33	1204.0
27.34	1189.0
27.35	1209.0
27.36	1209.0
27.37	1218.0
27.38	1227.0
27.39	1215.0
27.4	1200.0
27.41	1172.0
27.42	1157.0
27.43	1183.0
27.44	1185.0
27.45	1159.0
27.46	1162.0
27.47	1197.0
27.48	1202.0
27.49	1190.0
27.5	1211.0
27.51	1210.0
27.52	1169.0
27.53	1149.0
27.54	1182.0
27.55	1217.0
27.56	1186.0
27.57	1174.0
27.58	1198.0
27.59	1182.0
27.6	1169.0
27.61	1167.0
27.62	1138.0
27.63	1152.0
27.64	1178.0
27.65	1159.0
27.66	1145.0
27.67	1155.0
27.68	1161.0
27.69	1162.0
27.7	1149.0
27.71	1132.0
27.72	1151.0
27.73	1174.0
27.74	1164.0
27.75	1174.0
27.76	1170.0
27.77	1155.0
27.78	1148.0
27.79	1150.0
27.8	1133.0
27.81	1133.0
27.82	1156.0
27.83	1168.0
27.84	1158.0
27.85	1165.0
27.86	1167.0
27.87	1139.0
27.88	1135.0
27.89	1165.0
27.9	1181.0
27.91	1159.0
27.92	1139.0
27.93	1158.0
27.94	1159.0
27.95	1140.0
27.96	1117.0
27.97	1145.0
27.98	1167.0
27.99	1180.0
28.0	1182.0
28.01	1161.0
28.02	1152.0
28.03	1168.0
28.04	1156.0
28.05	1142.0
28.06	1148.0
28.07	1130.0
28.08	1123.0
28.09	1148.0
28.1	1169.0
28.11	1174.0
28.12	1148.0
28.13	1121.0
28.14	1134.0
28.15	1151.0
28.16	1156.0
28.17	1141.0
28.18	1139.0
28.19	1131.0
28.2	1111.0
28.21	1117.0
28.22	1134.0
28.23	1132.0
28.24	1109.0
28.25	1111.0
28.26	1136.0
28.27	1139.0
28.28	1124.0
28.29	1143.0
28.3	1167.0
28.31	1158.0
28.32	1138.0
28.33	1137.0
28.34	1152.0
28.35	1141.0
28.36	1135.0
28.37	1136.0
28.38	1135.0
28.39	1110.0
28.4	1091.0
28.41	1109.0
28.42	1151.0
28.43	1171.0
28.44	1156.0
28.45	1165.0
28.46	1175.0
28.47	1165.0
28.48	1167.0
28.49	1144.0
28.5	1107.0
28.51	1112.0
28.52	1139.0
28.53	1116.0
28.54	1100.0
28.55	1113.0
28.56	1125.0
28.57	1114.0
28.58	1127.0
28.59	1141.0
28.6	1124.0
28.61	1153.0
28.62	1151.0
28.63	1112.0
28.64	1117.0
28.65	1128.0
28.66	1138.0
28.67	1116.0
28.68	1115.0
28.69	1129.0
28.7	1104.0
28.71	1105.0
28.72	1113.0
28.73	1120.0
28.74	1132.0
28.75	1134.0
28.76	1128.0
28.77	1130.0
28.78	1131.0
28.79	1101.0
28.8	1080.0
28.81	1108.0
28.82	1083.0
28.83	1050.0
28.84	1047.0
28.85	1090.0
28.86	1098.0
28.87	1090.0
28.88	1086.0
28.89	1089.0
28.9	1101.0
28.91	1083.0
28.92	1107.0
28.93	1145.0
28.94	1153.0
28.95	1162.0
28.96	1161.0
28.97	1114.0
28.98	1126.0
28.99	1125.0
29.0	1105.0
29.01	1096.0
29.02	1117.0
29.03	1119.0
29.04	1109.0
29.05	1080.0
29.06	1078.0
29.07	1070.0
29.08	1085.0
29.09	1089.0
29.1	1094.0
29.11	1104.0
29.12	1085.0
29.13	1070.0
29.14	1062.0
29.15	1051.0
29.16	1049.0
29.17	1088.0
29.18	1108.0
29.19	1109.0
29.2	1083.0
29.21	1077.0
29.22	1101.0
29.23	1086.0
29.24	1106.0
29.25	1128.0
29.26	1107.0
29.27	1088.0
29.28	1065.0
29.29	1081.0
29.3	1109.0
29.31	1096.0
29.32	1081.0
29.33	1086.0
29.34	1080.0
29.35	1080.0
29.36	1125.0
29.37	1129.0
29.38	1112.0
29.39	1104.0
29.4	1078.0
29.41	1099.0
29.42	1098.0
29.43	1095.0
29.44	1104.0
29.45	1066.0
29.46	1054.0
29.47	1105.0
29.48	1113.0
29.49	1080.0
29.5	1056.0
29.51	1055.0
29.52	1062.0
29.53	1061.0
29.54	1045.0
29.55	1045.0
29.56	1021.0
29.57	1023.0
29.58	1050.0
29.59	1040.0
29.6	1063.0
29.61	1046.0
29.62	1088.0
29.63	1112.0
29.64	1110.0
29.65	1116.0
29.66	1087.0
29.67	1070.0
29.68	1099.0
29.69	1100.0
29.7	1089.0
29.71	1063.0
29.72	1078.0
29.73	1087.0
29.74	1046.0
29.75	1046.0
29.76	1047.0
29.77	1072.0
29.78	1058.0
29.79	1074.0
29.8	1098.0
29.81	1059.0
29.82	1046.0
29.83	1048.0
29.84	1053.0
29.85	1063.0
29.86	1046.0
29.87	1040.0
29.88	1074.0
29.89	1059.0
29.9	1075.0
29.91	1061.0
29.92	1051.0
29.93	1063.0
29.94	1053.0
29.95	1082.0
29.96	1072.0
29.97	1071.0
29.98	1096.0
29.99	1105.0
30.0	1119.0
30.01	1154.0
30.02	1118.0
30.03	1116.0
30.04	1105.0
30.05	1129.0
30.06	1158.0
30.07	1146.0
30.08	1157.0
30.09	1182.0
30.1	1197.0
30.11	1306.0
30.12	1405.0
30.13	1405.0
30.14	1458.0
30.15	1553.0
30.16	1634.0
30.17	1760.0
30.18	1809.0
30.19	1798.0
30.2	1771.0
30.21	1741.0
30.22	1695.0
30.23	1635.0
30.24	1615.0
30.25	1575.0
30.26	1553.0
30.27	1474.0
30.28	1445.0
30.29	1405.0
30.3	1360.0
30.31	1289.0
30.32	1232.0
30.33	1197.0
30.34	1152.0
30.35	1132.0
30.36	1118.0
30.37	1112.0
30.38	1075.0
30.39	1051.0
30.4	1062.0
30.41	1060.0
30.42	1058.0
30.43	1062.0
30.44	1053.0
30.45	1082.0
30.46	1057.0
30.47	1059.0
30.48	1056.0
30.49	1050.0
30.5	993.0
30.51	1024.0
30.52	1019.0
30.53	1045.0
30.54	1034.0
30.55	1000.0
30.56	1013.0
30.57	1044.0
30.58	1086.0
30.59	1023.0
30.6	992.0
30.61	1026.0
30.62	1040.0
30.63	1059.0
30.64	1061.0
30.65	1024.0
30.66	1024.0
30.67	1005.0
30.68	1010.0
30.69	1026.0
30.7	1040.0
30.71	1054.0
30.72	1019.0
30.73	1036.0
30.74	1033.0
30.75	1009.0
30.76	1021.0
30.77	1027.0
30.78	1001.0
30.79	1008.0
30.8	1035.0
30.81	1044.0
30.82	1001.0
30.83	1004.0
30.84	995.0
30.85	987.0
30.86	1003.0
30.87	1068.0
30.88	1003.0
30.89	961.0
30.9	976.0
30.91	991.0
30.92	992.0
30.93	980.0
30.94	1028.0
30.95	1004.0
30.96	1011.0
30.97	997.0
30.98	994.0
30.99	1010.0
31.0	993.0
31.01	983.0
31.02	1004.0
31.03	1051.0
31.04	1017.0
31.05	994.0
31.06	958.0
31.07	989.0
31.08	966.0
31.09	997.0
31.1	962.0
31.11	991.0
31.12	1024.0
31.13	994.0
31.14	984.0
31.15	1003.0
31.16	1008.0
31.17	971.0
31.18	991.0
31.19	1014.0
31.2	1013.0
31.21	995.0
31.22	980.0
31.23	1000.0
31.24	1026.0
31.25	1001.0
31.26	994.0
31.27	1001.0
31.28	968.0
31.29	976.0
31.3	995.0
31.31	1027.0
31.32	1038.0
31.33	1037.0
31.34	1005.0
31.35	953.0
31.36	958.0
31.37	947.0
31.38	984.0
31.39	1014.0
31.4	1034.0
31.41	1006.0
31.42	997.0
31.43	995.0
31.44	987.0
31.45	977.0
31.46	970.0
31.47	964.0
31.48	991.0
31.49	932.0
31.5	969.0
31.51	978.0
31.52	1008.0
31.53	980.0
31.54	988.0
31.55	1003.0
31.56	986.0
31.57	965.0
31.58	959.0
31.59	974.0
31.6	978.0
31.61	982.0
31.62	957.0
31.63	973.0
31.64	974.0
31.65	949.0
31.66	943.0
31.67	938.0
31.68	968.0
31.69	965.0
31.7	979.0
31.71	963.0
31.72	973.0
31.73	950.0
31.74	976.0
31.75	956.0
31.76	989.0
31.77	985.0
31.78	991.0
31.79	981.0
31.8	1016.0
31.81	986.0
31.82	968.0
31.83	985.0
31.84	1004.0
31.85	989.0
31.86	980.0
31.87	972.0
31.88	958.0
31.89	975.0
31.9	973.0
31.91	999.0
31.92	990.0
31.93	979.0
31.94	973.0
31.95	981.0
31.96	978.0
31.97	929.0
31.98	1002.0
31.99	977.0
32.0	939.0
32.01	955.0
32.02	934.0
32.03	961.0
32.04	943.0
32.05	963.0
32.06	949.0
32.07	946.0
32.08	939.0
32.09	913.0
32.1	930.0
32.11	954.0
32.12	976.0
32.13	955.0
32.14	969.0
32.15	922.0
32.16	963.0
32.17	987.0
32.18	964.0
32.19	1001.0
32.2	956.0
32.21	921.0
32.22	941.0
32.23	943.0
32.24	934.0
32.25	932.0
32.26	937.0
32.27	969.0
32.28	983.0
32.29	936.0
32.3	952.0
32.31	946.0
32.32	954.0
32.33	949.0
32.34	949.0
32.35	935.0
32.36	969.0
32.37	964.0
32.38	988.0
32.39	1022.0
32.4	997.0
32.41	972.0
32.42	972.0
32.43	955.0
32.44	966.0
32.45	961.0
32.46	986.0
32.47	970.0
32.48	947.0
32.49	955.0
32.5	941.0
32.51	935.0
32.52	950.0
32.53	935.0
32.54	987.0
32.55	981.0
32.56	956.0
32.57	944.0
32.58	948.0
32.59	979.0
32.6	975.0
32.61	962.0
32.62	961.0
32.63	930.0
32.64	962.0
32.65	953.0
32.66	963.0
32.67	930.0
32.68	920.0
32.69	923.0
32.7	934.0
32.71	939.0
32.72	900.0
32.73	916.0
32.74	914.0
32.75	901.0
32.76	937.0
32.77	944.0
32.78	934.0
32.79	919.0
32.8	905.0
32.81	903.0
32.82	915.0
32.83	929.0
32.84	935.0
32.85	937.0
32.86	922.0
32.87	910.0
32.88	920.0
32.89	906.0
32.9	915.0
32.91	897.0
32.92	897.0
32.93	909.0
32.94	928.0
32.95	942.0
32.96	929.0
32.97	894.0
32.98	886.0
32.99	917.0
33.0	925.0
33.01	926.0
33.02	919.0
33.03	944.0
33.04	933.0
33.05	918.0
33.06	918.0
33.07	932.0
33.08	939.0
33.09	895.0
33.1	907.0
33.11	922.0
33.12	906.0
33.13	906.0
33.14	905.0
33.15	891.0
33.16	931.0
33.17	925.0
33.18	926.0
33.19	940.0
33.2	940.0
33.21	966.0
33.22	958.0
33.23	942.0
33.24	940.0
33.25	922.0
33.26	923.0
33.27	956.0
33.28	921.0
33.29	895.0
33.3	900.0
33.31	918.0
33.32	945.0
33.33	910.0
33.34	868.0
33.35	885.0
33.36	929.0
33.37	943.0
33.38	921.0
33.39	928.0
33.4	898.0
33.41	895.0
33.42	921.0
33.43	898.0
33.44	904.0
33.45	912.0
33.46	896.0
33.47	928.0
33.48	918.0
33.49	908.0
33.5	896.0
33.51	900.0
33.52	896.0
33.53	903.0
33.54	888.0
33.55	876.0
33.56	907.0
33.57	929.0
33.58	927.0
33.59	930.0
33.6	950.0
33.61	945.0
33.62	949.0
33.63	922.0
33.64	932.0
33.65	912.0
33.66	904.0
33.67	919.0
33.68	925.0
33.69	951.0
33.7	948.0
33.71	892.0
33.72	863.0
33.73	905.0
33.74	929.0
33.75	919.0
33.76	906.0
33.77	902.0
33.78	904.0
33.79	910.0
33.8	932.0
33.81	916.0
33.82	930.0
33.83	960.0
33.84	974.0
33.85	937.0
33.86	908.0
33.87	873.0
33.88	899.0
33.89	908.0
33.9	885.0
33.91	889.0
33.92	884.0
33.93	892.0
33.94	904.0
33.95	902.0
33.96	883.0
33.97	867.0
33.98	881.0
33.99	909.0
34.0	908.0
34.01	898.0
34.02	906.0
34.03	923.0
34.04	945.0
34.05	916.0
34.06	918.0
34.07	899.0
34.08	895.0
34.09	918.0
34.1	908.0
34.11	898.0
34.12	910.0
34.13	890.0
34.14	881.0
34.15	856.0
34.16	877.0
34.17	886.0
34.18	870.0
34.19	872.0
34.2	870.0
34.21	864.0
34.22	875.0
34.23	879.0
34.24	884.0
34.25	934.0
34.26	908.0
34.27	926.0
34.28	920.0
34.29	917.0
34.3	922.0
34.31	922.0
34.32	942.0
34.33	927.0
34.34	921.0
34.35	916.0
34.36	904.0
34.37	903.0
34.38	921.0
34.39	932.0
34.4	927.0
34.41	938.0
34.42	939.0
34.43	935.0
34.44	935.0
34.45	947.0
34.46	942.0
34.47	918.0
34.48	938.0
34.49	948.0
34.5	932.0
34.51	938.0
34.52	935.0
34.53	921.0
34.54	931.0
34.55	951.0
34.56	940.0
34.57	935.0
34.58	918.0
34.59	912.0
34.6	916.0
34.61	924.0
34.62	932.0
34.63	935.0
34.64	933.0
34.65	906.0
34.66	886.0
34.67	899.0
34.68	915.0
34.69	923.0
34.7	941.0
34.71	930.0
34.72	920.0
34.73	940.0
34.74	925.0
34.75	905.0
34.76	945.0
34.77	943.0
34.78	960.0
34.79	972.0
34.8	948.0
34.81	910.0
34.82	909.0
34.83	910.0
34.84	890.0
34.85	917.0
34.86	925.0
34.87	925.0
34.88	921.0
34.89	904.0
34.9	918.0
34.91	960.0
34.92	940.0
34.93	944.0
34.94	953.0
34.95	950.0
34.96	927.0
34.97	924.0
34.98	954.0
34.99	970.0
35.0	961.0
35.01	969.0
35.02	987.0
35.03	971.0
35.04	949.0
35.05	982.0
35.06	1019.0
35.07	996.0
35.08	971.0
35.09	999.0
35.1	1021.0
35.11	1009.0
35.12	1010.0
35.13	1031.0
35.14	1037.0
35.15	1039.0
35.16	1062.0
35.17	1064.0
35.18	1068.0
35.19	1095.0
35.2	1096.0
35.21	1087.0
35.22	1092.0
35.23	1101.0
35.24	1102.0
35.25	1122.0
35.26	1154.0
35.27	1169.0
35.28	1183.0
35.29	1184.0
35.3	1195.0
35.31	1223.0
35.32	1221.0
35.33	1261.0
35.34	1330.0
35.35	1411.0
35.36	1488.0
35.37	1520.0
35.38	1590.0
35.39	1665.0
35.4	1722.0
35.41	1854.0
35.42	2008.0
35.43	2137.0
35.44	2309.0
35.45	2537.0
35.46	2834.0
35.47	3242.0
35.48	3668.0
35.49	4223.0
35.5	4886.0
35.51	5596.0
35.52	6363.0
35.53	7117.0
35.54	7782.0
35.55	8312.0
35.56	8644.0
35.57	8708.0
35.58	8469.0
35.59	8013.0
35.6	7493.0
35.61	7021.0
35.62	6724.0
35.63	6569.0
35.64	6354.0
35.65	6009.0
35.66	5580.0
35.67	5111.0
35.68	4587.0
35.69	4090.0
35.7	3590.0
35.71	3123.0
35.72	2767.0
35.73	2445.0
35.74	2207.0
35.75	2029.0
35.76	1858.0
35.77	1716.0
35.78	1577.0
35.79	1474.0
35.8	1402.0
35.81	1348.0
35.82	1306.0
35.83	1286.0
35.84	1267.0
35.85	1232.0
35.86	1176.0
35.87	1159.0
35.88	1187.0
35.89	1204.0
35.9	1181.0
35.91	1133.0
35.92	1111.0
35.93	1102.0
35.94	1083.0
35.95	1068.0
35.96	1041.0
35.97	1053.0
35.98	1054.0
35.99	1052.0
36.0	1042.0
36.01	1020.0
36.02	1018.0
36.03	1011.0
36.04	994.0
36.05	984.0
36.06	998.0
36.07	992.0
36.08	978.0
36.09	960.0
36.1	926.0
36.11	912.0
36.12	929.0
36.13	932.0
36.14	924.0
36.15	915.0
36.16	921.0
36.17	938.0
36.18	951.0
36.19	945.0
36.2	909.0
36.21	868.0
36.22	868.0
36.23	906.0
36.24	916.0
36.25	884.0
36.26	866.0
36.27	882.0
36.28	909.0
36.29	922.0
36.3	930.0
36.31	927.0
36.32	919.0
36.33	909.0
36.34	882.0
36.35	876.0
36.36	891.0
36.37	886.0
36.38	900.0
36.39	929.0
36.4	905.0
36.41	878.0
36.42	882.0
36.43	899.0
36.44	894.0
36.45	882.0
36.46	900.0
36.47	902.0
36.48	876.0
36.49	857.0
36.5	882.0
36.51	903.0
36.52	902.0
36.53	883.0
36.54	857.0
36.55	877.0
36.56	898.0
36.57	890.0
36.58	869.0
36.59	865.0
36.6	892.0
36.61	897.0
36.62	890.0
36.63	911.0
36.64	911.0
36.65	895.0
36.66	898.0
36.67	887.0
36.68	867.0
36.69	854.0
36.7	870.0
36.71	902.0
36.72	886.0
36.73	853.0
36.74	867.0
36.75	886.0
36.76	901.0
36.77	920.0
36.78	904.0
36.79	857.0
36.8	841.0
36.81	870.0
36.82	887.0
36.83	890.0
36.84	868.0
36.85	833.0
36.86	845.0
36.87	853.0
36.88	852.0
36.89	876.0
36.9	867.0
36.91	850.0
36.92	856.0
36.93	863.0
36.94	872.0
36.95	898.0
36.96	907.0
36.97	891.0
36.98	873.0
36.99	869.0
37.0	890.0
37.01	906.0
37.02	903.0
37.03	885.0
37.04	880.0
37.05	906.0
37.06	935.0
37.07	938.0
37.08	920.0
37.09	946.0
37.1	991.0
37.11	1009.0
37.12	1014.0
37.13	1052.0
37.14	1092.0
37.15	1108.0
37.16	1147.0
37.17	1216.0
37.18	1275.0
37.19	1316.0
37.2	1351.0
37.21	1316.0
37.22	1258.0
37.23	1232.0
37.24	1214.0
37.25	1186.0
37.26	1153.0
37.27	1145.0
37.28	1165.0
37.29	1149.0
37.3	1095.0
37.31	1068.0
37.32	1046.0
37.33	1016.0
37.34	978.0
37.35	948.0
37.36	934.0
37.37	917.0
37.38	907.0
37.39	884.0
37.4	865.0
37.41	862.0
37.42	866.0
37.43	857.0
37.44	848.0
37.45	837.0
37.46	832.0
37.47	867.0
37.48	862.0
37.49	826.0
37.5	822.0
37.51	856.0
37.52	848.0
37.53	845.0
37.54	857.0
37.55	850.0
37.56	844.0
37.57	839.0
37.58	833.0
37.59	834.0
37.6	850.0
37.61	854.0
37.62	845.0
37.63	832.0
37.64	820.0
37.65	846.0
37.66	865.0
37.67	843.0
37.68	827.0
37.69	829.0
37.7	809.0
37.71	829.0
37.72	839.0
37.73	801.0
37.74	813.0
37.75	825.0
37.76	825.0
37.77	821.0
37.78	810.0
37.79	821.0
37.8	821.0
37.81	814.0
37.82	812.0
37.83	815.0
37.84	837.0
37.85	836.0
37.86	817.0
37.87	830.0
37.88	835.0
37.89	816.0
37.9	812.0
37.91	791.0
37.92	831.0
37.93	864.0
37.94	846.0
37.95	824.0
37.96	826.0
37.97	831.0
37.98	826.0
37.99	824.0
38.0	838.0
38.01	839.0
38.02	821.0
38.03	820.0
38.04	826.0
38.05	828.0
38.06	829.0
38.07	810.0
38.08	795.0
38.09	819.0
38.1	819.0
38.11	806.0
38.12	822.0
38.13	837.0
38.14	828.0
38.15	822.0
38.16	803.0
38.17	809.0
38.18	824.0
38.19	803.0
38.2	788.0
38.21	789.0
38.22	817.0
38.23	830.0
38.24	823.0
38.25	792.0
38.26	795.0
38.27	810.0
38.28	806.0
38.29	824.0
38.3	812.0
38.31	790.0
38.32	798.0
38.33	808.0
38.34	826.0
38.35	823.0
38.36	810.0
38.37	819.0
38.38	818.0
38.39	817.0
38.4	815.0
38.41	822.0
38.42	821.0
38.43	815.0
38.44	795.0
38.45	786.0
38.46	792.0
38.47	810.0
38.48	818.0
38.49	796.0
38.5	797.0
38.51	799.0
38.52	769.0
38.53	767.0
38.54	798.0
38.55	819.0
38.56	827.0
38.57	804.0
38.58	793.0
38.59	809.0
38.6	844.0
38.61	860.0
38.62	847.0
38.63	832.0
38.64	815.0
38.65	807.0
38.66	846.0
38.67	843.0
38.68	791.0
38.69	811.0
38.7	825.0
38.71	823.0
38.72	818.0
38.73	794.0
38.74	781.0
38.75	787.0
38.76	794.0
38.77	794.0
38.78	811.0
38.79	825.0
38.8	817.0
38.81	816.0
38.82	801.0
38.83	825.0
38.84	841.0
38.85	825.0
38.86	802.0
38.87	789.0
38.88	788.0
38.89	800.0
38.9	816.0
38.91	826.0
38.92	832.0
38.93	828.0
38.94	806.0
38.95	818.0
38.96	828.0
38.97	830.0
38.98	805.0
38.99	777.0
39.0	778.0
39.01	793.0
39.02	791.0
39.03	770.0
39.04	776.0
39.05	794.0
39.06	781.0
39.07	783.0
39.08	819.0
39.09	840.0
39.1	813.0
39.11	799.0
39.12	787.0
39.13	810.0
39.14	777.0
39.15	749.0
39.16	778.0
39.17	784.0
39.18	795.0
39.19	778.0
39.2	802.0
39.21	800.0
39.22	769.0
39.23	779.0
39.24	795.0
39.25	781.0
39.26	795.0
39.27	801.0
39.28	803.0
39.29	815.0
39.3	812.0
39.31	790.0
39.32	791.0
39.33	784.0
39.34	774.0
39.35	787.0
39.36	781.0
39.37	776.0
39.38	752.0
39.39	754.0
39.4	760.0
39.41	785.0
39.42	780.0
39.43	762.0
39.44	796.0
39.45	829.0
39.46	836.0
39.47	790.0
39.48	757.0
39.49	767.0
39.5	779.0
39.51	750.0
39.52	785.0
39.53	801.0
39.54	795.0
39.55	777.0
39.56	764.0
39.57	781.0
39.58	828.0
39.59	789.0
39.6	775.0
39.61	764.0
39.62	792.0
39.63	818.0
39.64	810.0
39.65	783.0
39.66	786.0
39.67	785.0
39.68	773.0
39.69	769.0
39.7	788.0
39.71	805.0
39.72	783.0
39.73	774.0
39.74	781.0
39.75	786.0
39.76	768.0
39.77	779.0
39.78	796.0
39.79	784.0
39.8	776.0
39.81	810.0
39.82	807.0
39.83	780.0
39.84	764.0
39.85	772.0
39.86	758.0
39.87	754.0
39.88	746.0
39.89	747.0
39.9	757.0
39.91	786.0
39.92	789.0
39.93	755.0
39.94	766.0
39.95	800.0
39.96	815.0
39.97	787.0
39.98	745.0
39.99	788.0
40.0	790.0
40.01	816.0
40.02	803.0
40.03	792.0
40.04	769.0
40.05	770.0
40.06	785.0
40.07	780.0
40.08	782.0
40.09	810.0
40.1	822.0
40.11	788.0
40.12	765.0
40.13	758.0
40.14	777.0
40.15	791.0
40.16	769.0
40.17	784.0
40.18	785.0
40.19	762.0
40.2	743.0
40.21	713.0
40.22	747.0
40.23	754.0
40.24	742.0
40.25	782.0
40.26	795.0
40.27	777.0
40.28	776.0
40.29	803.0
40.3	811.0
40.31	802.0
40.32	784.0
40.33	774.0
40.34	765.0
40.35	771.0
40.36	778.0
40.37	775.0
40.38	767.0
40.39	756.0
40.4	759.0
40.41	772.0
40.42	775.0
40.43	777.0
40.44	756.0
40.45	770.0
40.46	789.0
40.47	807.0
40.48	805.0
40.49	774.0
40.5	761.0
40.51	743.0
40.52	741.0
40.53	775.0
40.54	769.0
40.55	780.0
40.56	786.0
40.57	745.0
40.58	751.0
40.59	802.0
40.6	756.0
40.61	759.0
40.62	776.0
40.63	771.0
40.64	765.0
40.65	777.0
40.66	794.0
40.67	770.0
40.68	772.0
40.69	757.0
40.7	731.0
40.71	753.0
40.72	775.0
40.73	746.0
40.74	752.0
40.75	773.0
40.76	779.0
40.77	765.0
40.78	803.0
40.79	794.0
40.8	766.0
40.81	784.0
40.82	785.0
40.83	773.0
40.84	753.0
40.85	760.0
40.86	778.0
40.87	766.0
40.88	738.0
40.89	770.0
40.9	783.0
40.91	754.0
40.92	748.0
40.93	768.0
40.94	819.0
40.95	810.0
40.96	785.0
40.97	761.0
40.98	778.0
40.99	808.0
41.0	784.0
41.01	762.0
41.02	784.0
41.03	756.0
41.04	763.0
41.05	737.0
41.06	750.0
41.07	790.0
41.08	769.0
41.09	805.0
41.1	818.0
41.11	817.0
41.12	792.0
41.13	793.0
41.14	773.0
41.15	749.0
41.16	750.0
41.17	796.0
41.18	811.0
41.19	733.0
41.2	740.0
41.21	765.0
41.22	736.0
41.23	761.0
41.24	783.0
41.25	795.0
41.26	760.0
41.27	749.0
41.28	730.0
41.29	771.0
41.3	785.0
41.31	767.0
41.32	758.0
41.33	743.0
41.34	786.0
41.35	784.0
41.36	740.0
41.37	728.0
41.38	779.0
41.39	775.0
41.4	741.0
41.41	733.0
41.42	794.0
41.43	807.0
41.44	784.0
41.45	738.0
41.46	743.0
41.47	758.0
41.48	779.0
41.49	777.0
41.5	784.0
41.51	755.0
41.52	757.0
41.53	728.0
41.54	762.0
41.55	757.0
41.56	767.0
41.57	762.0
41.58	767.0
41.59	792.0
41.6	778.0
41.61	760.0
41.62	744.0
41.63	781.0
41.64	798.0
41.65	772.0
41.66	776.0
41.67	801.0
41.68	803.0
41.69	797.0
41.7	760.0
41.71	758.0
41.72	751.0
41.73	771.0
41.74	782.0
41.75	810.0
41.76	818.0
41.77	822.0
41.78	788.0
41.79	770.0
41.8	769.0
41.81	771.0
41.82	773.0
41.83	759.0
41.84	759.0
41.85	790.0
41.86	785.0
41.87	766.0
41.88	790.0
41.89	769.0
41.9	794.0
41.91	786.0
41.92	774.0
41.93	806.0
41.94	801.0
41.95	798.0
41.96	782.0
41.97	787.0
41.98	811.0
41.99	829.0
42.0	809.0
42.01	767.0
42.02	768.0
42.03	788.0
42.04	821.0
42.05	816.0
42.06	808.0
42.07	801.0
42.08	796.0
42.09	794.0
42.1	787.0
42.11	759.0
42.12	770.0
42.13	752.0
42.14	768.0
42.15	774.0
42.16	786.0
42.17	802.0
42.18	781.0
42.19	784.0
42.2	809.0
42.21	801.0
42.22	787.0
42.23	792.0
42.24	804.0
42.25	777.0
42.26	795.0
42.27	783.0
42.28	782.0
42.29	783.0
42.3	755.0
42.31	809.0
42.32	810.0
42.33	798.0
42.34	833.0
42.35	820.0
42.36	753.0
42.37	768.0
42.38	781.0
42.39	851.0
42.4	851.0
42.41	839.0
42.42	822.0
42.43	813.0
42.44	828.0
42.45	829.0
42.46	784.0
42.47	760.0
42.48	767.0
42.49	802.0
42.5	814.0
42.51	825.0
42.52	792.0
42.53	838.0
42.54	806.0
42.55	823.0
42.56	851.0
42.57	832.0
42.58	795.0
42.59	801.0
42.6	819.0
42.61	824.0
42.62	848.0
42.63	863.0
42.64	856.0
42.65	871.0
42.66	850.0
42.67	825.0
42.68	862.0
42.69	853.0
42.7	849.0
42.71	860.0
42.72	903.0
42.73	926.0
42.74	889.0
42.75	865.0
42.76	877.0
42.77	933.0
42.78	921.0
42.79	947.0
42.8	942.0
42.81	955.0
42.82	958.0
42.83	961.0
42.84	957.0
42.85	980.0
42.86	971.0
42.87	989.0
42.88	1001.0
42.89	1029.0
42.9	1015.0
42.91	1045.0
42.92	1063.0
42.93	1104.0
42.94	1102.0
42.95	1121.0
42.96	1115.0
42.97	1141.0
42.98	1196.0
42.99	1199.0
43.0	1182.0
43.01	1263.0
43.02	1298.0
43.03	1312.0
43.04	1348.0
43.05	1474.0
43.06	1605.0
43.07	1666.0
43.08	1746.0
43.09	1911.0
43.1	2105.0
43.11	2359.0
43.12	2652.0
43.13	2999.0
43.14	3437.0
43.15	3883.0
43.16	4435.0
43.17	5066.0
43.18	5819.0
43.19	6315.0
43.2	6861.0
43.21	7100.0
43.22	7101.0
43.23	6943.0
43.24	6674.0
43.25	6330.0
43.26	5911.0
43.27	5620.0
43.28	5447.0
43.29	5375.0
43.3	5281.0
43.31	5234.0
43.32	5150.0
43.33	4909.0
43.34	4578.0
43.35	4207.0
43.36	3918.0
43.37	3488.0
43.38	3081.0
43.39	2858.0
43.4	2554.0
43.41	2371.0
43.42	2086.0
43.43	1968.0
43.44	1864.0
43.45	1731.0
43.46	1601.0
43.47	1469.0
43.48	1386.0
43.49	1299.0
43.5	1279.0
43.51	1230.0
43.52	1179.0
43.53	1127.0
43.54	1096.0
43.55	1082.0
43.56	1113.0
43.57	1066.0
43.58	1005.0
43.59	1001.0
43.6	1038.0
43.61	989.0
43.62	955.0
43.63	988.0
43.64	970.0
43.65	957.0
43.66	991.0
43.67	979.0
43.68	987.0
43.69	926.0
43.7	898.0
43.71	909.0
43.72	896.0
43.73	874.0
43.74	908.0
43.75	885.0
43.76	834.0
43.77	886.0
43.78	897.0
43.79	864.0
43.8	875.0
43.81	861.0
43.82	861.0
43.83	870.0
43.84	843.0
43.85	835.0
43.86	836.0
43.87	837.0
43.88	823.0
43.89	837.0
43.9	827.0
43.91	822.0
43.92	821.0
43.93	806.0
43.94	820.0
43.95	843.0
43.96	832.0
43.97	813.0
43.98	813.0
43.99	823.0
44.0	789.0
44.01	780.0
44.02	776.0
44.03	790.0
44.04	767.0
44.05	809.0
44.06	815.0
44.07	800.0
44.08	805.0
44.09	791.0
44.1	796.0
44.11	795.0
44.12	789.0
44.13	787.0
44.14	773.0
44.15	774.0
44.16	780.0
44.17	768.0
44.18	783.0
44.19	814.0
44.2	801.0
44.21	789.0
44.22	765.0
44.23	776.0
44.24	813.0
44.25	788.0
44.26	763.0
44.27	789.0
44.28	805.0
44.29	766.0
44.3	760.0
44.31	770.0
44.32	765.0
44.33	781.0
44.34	790.0
44.35	780.0
44.36	793.0
44.37	812.0
44.38	796.0
44.39	764.0
44.4	746.0
44.41	764.0
44.42	780.0
44.43	762.0
44.44	778.0
44.45	767.0
44.46	754.0
44.47	745.0
44.48	743.0
44.49	753.0
44.5	745.0
44.51	762.0
44.52	778.0
44.53	747.0
44.54	737.0
44.55	766.0
44.56	755.0
44.57	750.0
44.58	746.0
44.59	742.0
44.6	770.0
44.61	767.0
44.62	788.0
44.63	764.0
44.64	788.0
44.65	802.0
44.66	778.0
44.67	739.0
44.68	736.0
44.69	776.0
44.7	808.0
44.71	794.0
44.72	765.0
44.73	735.0
44.74	743.0
44.75	725.0
44.76	743.0
44.77	782.0
44.78	785.0
44.79	771.0
44.8	753.0
44.81	776.0
44.82	761.0
44.83	738.0
44.84	733.0
44.85	781.0
44.86	783.0
44.87	780.0
44.88	760.0
44.89	745.0
44.9	740.0
44.91	747.0
44.92	739.0
44.93	727.0
44.94	752.0
44.95	772.0
44.96	785.0
44.97	799.0
44.98	778.0
44.99	750.0
45.0	738.0
45.01	752.0
45.02	736.0
45.03	733.0
45.04	768.0
45.05	790.0
45.06	791.0
45.07	773.0
45.08	775.0
45.09	784.0
45.1	757.0
45.11	764.0
45.12	756.0
45.13	775.0
45.14	784.0
45.15	763.0
45.16	744.0
45.17	756.0
45.18	751.0
45.19	762.0
45.2	758.0
45.21	758.0
45.22	766.0
45.23	746.0
45.24	740.0
45.25	738.0
45.26	748.0
45.27	727.0
45.28	718.0
45.29	727.0
45.3	749.0
45.31	746.0
45.32	740.0
45.33	753.0
45.34	746.0
45.35	744.0
45.36	753.0
45.37	764.0
45.38	759.0
45.39	737.0
45.4	746.0
45.41	747.0
45.42	759.0
45.43	737.0
45.44	749.0
45.45	778.0
45.46	770.0
45.47	740.0
45.48	713.0
45.49	761.0
45.5	755.0
45.51	751.0
45.52	741.0
45.53	716.0
45.54	737.0
45.55	729.0
45.56	737.0
45.57	748.0
45.58	763.0
45.59	750.0
45.6	745.0
45.61	759.0
45.62	765.0
45.63	758.0
45.64	771.0
45.65	776.0
45.66	776.0
45.67	777.0
45.68	766.0
45.69	750.0
45.7	732.0
45.71	741.0
45.72	726.0
45.73	732.0
45.74	720.0
45.75	731.0
45.76	767.0
45.77	781.0
45.78	774.0
45.79	755.0
45.8	749.0
45.81	761.0
45.82	763.0
45.83	739.0
45.84	731.0
45.85	732.0
45.86	728.0
45.87	732.0
45.88	737.0
45.89	734.0
45.9	742.0
45.91	736.0
45.92	747.0
45.93	753.0
45.94	751.0
45.95	767.0
45.96	769.0
45.97	720.0
45.98	733.0
45.99	759.0
46.0	742.0
46.01	730.0
46.02	731.0
46.03	751.0
46.04	774.0
46.05	756.0
46.06	740.0
46.07	761.0
46.08	776.0
46.09	782.0
46.1	775.0
46.11	741.0
46.12	740.0
46.13	771.0
46.14	768.0
46.15	763.0
46.16	788.0
46.17	756.0
46.18	750.0
46.19	750.0
46.2	732.0
46.21	734.0
46.22	750.0
46.23	754.0
46.24	755.0
46.25	730.0
46.26	715.0
46.27	731.0
46.28	750.0
46.29	752.0
46.3	749.0
46.31	756.0
46.32	752.0
46.33	769.0
46.34	772.0
46.35	731.0
46.36	704.0
46.37	735.0
46.38	761.0
46.39	757.0
46.4	739.0
46.41	720.0
46.42	732.0
46.43	761.0
46.44	744.0
46.45	736.0
46.46	733.0
46.47	730.0
46.48	735.0
46.49	751.0
46.5	761.0
46.51	737.0
46.52	700.0
46.53	712.0
46.54	750.0
46.55	761.0
46.56	744.0
46.57	729.0
46.58	740.0
46.59	737.0
46.6	730.0
46.61	735.0
46.62	767.0
46.63	765.0
46.64	740.0
46.65	725.0
46.66	731.0
46.67	747.0
46.68	748.0
46.69	747.0
46.7	759.0
46.71	774.0
46.72	775.0
46.73	768.0
46.74	747.0
46.75	727.0
46.76	715.0
46.77	731.0
46.78	725.0
46.79	745.0
46.8	711.0
46.81	704.0
46.82	724.0
46.83	750.0
46.84	745.0
46.85	740.0
46.86	742.0
46.87	726.0
46.88	722.0
46.89	738.0
46.9	730.0
46.91	718.0
46.92	747.0
46.93	759.0
46.94	740.0
46.95	746.0
46.96	743.0
46.97	731.0
46.98	715.0
46.99	739.0
47.0	742.0
47.01	770.0
47.02	792.0
47.03	778.0
47.04	759.0
47.05	751.0
47.06	775.0
47.07	797.0
47.08	765.0
47.09	749.0
47.1	768.0
47.11	766.0
47.12	767.0
47.13	783.0
47.14	795.0
47.15	791.0
47.16	783.0
47.17	786.0
47.18	802.0
47.19	823.0
47.2	846.0
47.21	873.0
47.22	890.0
47.23	899.0
47.24	926.0
47.25	951.0
47.26	977.0
47.27	1027.0
47.28	1081.0
47.29	1121.0
47.3	1120.0
47.31	1136.0
47.32	1149.0
47.33	1148.0
47.34	1147.0
47.35	1142.0
47.36	1132.0
47.37	1086.0
47.38	1032.0
47.39	1014.0
47.4	1031.0
47.41	1062.0
47.42	1074.0
47.43	1033.0
47.44	1007.0
47.45	996.0
47.46	981.0
47.47	982.0
47.48	959.0
47.49	941.0
47.5	922.0
47.51	879.0
47.52	847.0
47.53	834.0
47.54	817.0
47.55	822.0
47.56	820.0
47.57	793.0
47.58	775.0
47.59	767.0
47.6	780.0
47.61	769.0
47.62	752.0
47.63	769.0
47.64	776.0
47.65	775.0
47.66	766.0
47.67	746.0
47.68	748.0
47.69	744.0
47.7	726.0
47.71	759.0
47.72	786.0
47.73	762.0
47.74	749.0
47.75	743.0
47.76	725.0
47.77	726.0
47.78	728.0
47.79	748.0
47.8	758.0
47.81	762.0
47.82	761.0
47.83	748.0
47.84	766.0
47.85	770.0
47.86	724.0
47.87	712.0
47.88	715.0
47.89	711.0
47.9	737.0
47.91	741.0
47.92	715.0
47.93	716.0
47.94	732.0
47.95	725.0
47.96	722.0
47.97	733.0
47.98	740.0
47.99	722.0
48.0	706.0
48.01	716.0
48.02	727.0
48.03	739.0
48.04	727.0
48.05	697.0
48.06	690.0
48.07	712.0
48.08	711.0
48.09	691.0
48.1	699.0
48.11	728.0
48.12	724.0
48.13	718.0
48.14	724.0
48.15	723.0
48.16	729.0
48.17	746.0
48.18	735.0
48.19	716.0
48.2	739.0
48.21	757.0
48.22	743.0
48.23	735.0
48.24	730.0
48.25	721.0
48.26	732.0
48.27	727.0
48.28	710.0
48.29	707.0
48.3	721.0
48.31	735.0
48.32	721.0
48.33	701.0
48.34	718.0
48.35	729.0
48.36	728.0
48.37	728.0
48.38	716.0
48.39	701.0
48.4	708.0
48.41	716.0
48.42	713.0
48.43	709.0
48.44	702.0
48.45	719.0
48.46	725.0
48.47	728.0
48.48	735.0
48.49	727.0
48.5	714.0
48.51	727.0
48.52	724.0
48.53	716.0
48.54	728.0
48.55	733.0
48.56	736.0
48.57	749.0
48.58	750.0
48.59	725.0
48.6	709.0
48.61	714.0
48.62	719.0
48.63	727.0
48.64	755.0
48.65	768.0
48.66	756.0
48.67	741.0
48.68	716.0
48.69	705.0
48.7	697.0
48.71	700.0
48.72	717.0
48.73	729.0
48.74	744.0
48.75	759.0
48.76	752.0
48.77	722.0
48.78	706.0
48.79	719.0
48.8	723.0
48.81	705.0
48.82	697.0
48.83	711.0
48.84	734.0
48.85	742.0
48.86	741.0
48.87	748.0
48.88	738.0
48.89	727.0
48.9	710.0
48.91	702.0
48.92	711.0
48.93	718.0
48.94	713.0
48.95	705.0
48.96	720.0
48.97	744.0
48.98	756.0
48.99	742.0
49.0	709.0
49.01	692.0
49.02	693.0
49.03	698.0
49.04	712.0
49.05	721.0
49.06	721.0
49.07	718.0
49.08	730.0
49.09	738.0
49.1	717.0
49.11	712.0
49.12	711.0
49.13	715.0
49.14	725.0
49.15	761.0
49.16	780.0
49.17	748.0
49.18	727.0
49.19	709.0
49.2	706.0
49.21	714.0
49.22	715.0
49.23	719.0
49.24	709.0
49.25	713.0
49.26	721.0
49.27	701.0
49.28	703.0
49.29	723.0
49.3	716.0
49.31	726.0
49.32	722.0
49.33	684.0
49.34	686.0
49.35	729.0
49.36	742.0
49.37	739.0
49.38	734.0
49.39	718.0
49.4	723.0
49.41	715.0
49.42	696.0
49.43	700.0
49.44	702.0
49.45	708.0
49.46	734.0
49.47	737.0
49.48	714.0
49.49	709.0
49.5	730.0
49.51	728.0
49.52	731.0
49.53	739.0
49.54	730.0
49.55	717.0
49.56	706.0
49.57	705.0
49.58	711.0
49.59	725.0
49.6	733.0
49.61	718.0
49.62	711.0
49.63	709.0
49.64	713.0
49.65	720.0
49.66	743.0
49.67	758.0
49.68	736.0
49.69	735.0
49.7	753.0
49.71	738.0
49.72	746.0
49.73	753.0
49.74	721.0
49.75	706.0
49.76	710.0
49.77	702.0
49.78	711.0
49.79	728.0
49.8	722.0
49.81	734.0
49.82	749.0
49.83	737.0
49.84	719.0
49.85	722.0
49.86	745.0
49.87	760.0
49.88	743.0
49.89	714.0
49.9	703.0
49.91	692.0
49.92	694.0
49.93	721.0
49.94	732.0
49.95	720.0
49.96	715.0
49.97	715.0
49.98	714.0
49.99	720.0
50.0	724.0
50.01	710.0
50.02	685.0
50.03	694.0
50.04	711.0
50.05	705.0
50.06	707.0
50.07	719.0
50.08	705.0
50.09	685.0
50.1	691.0
50.11	705.0
50.12	721.0
50.13	714.0
50.14	698.0
50.15	709.0
50.16	723.0
50.17	715.0
50.18	698.0
50.19	696.0
50.2	714.0
50.21	719.0
50.22	719.0
50.23	711.0
50.24	702.0
50.25	726.0
50.26	732.0
50.27	711.0
50.28	716.0
50.29	735.0
50.3	731.0
50.31	721.0
50.32	724.0
50.33	725.0
50.34	730.0
50.35	765.0
50.36	778.0
50.37	744.0
50.38	705.0
50.39	680.0
50.4	689.0
50.41	713.0
50.42	721.0
50.43	711.0
50.44	703.0
50.45	706.0
50.46	718.0
50.47	714.0
50.48	701.0
50.49	707.0
50.5	715.0
50.51	713.0
50.52	711.0
50.53	705.0
50.54	696.0
50.55	703.0
50.56	726.0
50.57	720.0
50.58	669.0
50.59	651.0
50.6	689.0
50.61	722.0
50.62	736.0
50.63	723.0
50.64	710.0
50.65	709.0
50.66	694.0
50.67	699.0
50.68	731.0
50.69	738.0
50.7	729.0
50.71	728.0
50.72	714.0
50.73	699.0
50.74	698.0
50.75	700.0
50.76	708.0
50.77	707.0
50.78	704.0
50.79	702.0
50.8	707.0
50.81	720.0
50.82	722.0
50.83	733.0
50.84	733.0
50.85	717.0
50.86	718.0
50.87	714.0
50.88	706.0
50.89	713.0
50.9	701.0
50.91	696.0
50.92	698.0
50.93	714.0
50.94	731.0
50.95	709.0
50.96	693.0
50.97	701.0
50.98	716.0
50.99	720.0
51.0	705.0
51.01	708.0
51.02	723.0
51.03	731.0
51.04	720.0
51.05	696.0
51.06	687.0
51.07	685.0
51.08	684.0
51.09	696.0
51.1	708.0
51.11	715.0
51.12	722.0
51.13	716.0
51.14	720.0
51.15	727.0
51.16	715.0
51.17	703.0
51.18	699.0
51.19	721.0
51.2	753.0
51.21	763.0
51.22	734.0
51.23	701.0
51.24	699.0
51.25	712.0
51.26	708.0
51.27	715.0
51.28	742.0
51.29	736.0
51.3	702.0
51.31	683.0
51.32	692.0
51.33	704.0
51.34	705.0
51.35	702.0
51.36	702.0
51.37	694.0
51.38	694.0
51.39	708.0
51.4	715.0
51.41	714.0
51.42	708.0
51.43	707.0
51.44	705.0
51.45	699.0
51.46	727.0
51.47	735.0
51.48	699.0
51.49	706.0
51.5	745.0
51.51	750.0
51.52	729.0
51.53	716.0
51.54	712.0
51.55	730.0
51.56	740.0
51.57	706.0
51.58	689.0
51.59	714.0
51.6	713.0
51.61	703.0
51.62	697.0
51.63	698.0
51.64	701.0
51.65	705.0
51.66	716.0
51.67	708.0
51.68	697.0
51.69	691.0
51.7	695.0
51.71	691.0
51.72	706.0
51.73	718.0
51.74	716.0
51.75	704.0
51.76	686.0
51.77	700.0
51.78	723.0
51.79	718.0
51.8	725.0
51.81	743.0
51.82	728.0
51.83	714.0
51.84	712.0
51.85	718.0
51.86	726.0
51.87	714.0
51.88	736.0
51.89	776.0
51.9	751.0
51.91	715.0
51.92	704.0
51.93	703.0
51.94	714.0
51.95	709.0
51.96	699.0
51.97	714.0
51.98	729.0
51.99	720.0
52.0	700.0
52.01	697.0
52.02	707.0
52.03	696.0
52.04	687.0
52.05	710.0
52.06	712.0
52.07	703.0
52.08	694.0
52.09	686.0
52.1	694.0
52.11	703.0
52.12	703.0
52.13	693.0
52.14	685.0
52.15	700.0
52.16	714.0
52.17	711.0
52.18	714.0
52.19	717.0
52.2	725.0
52.21	738.0
52.22	733.0
52.23	708.0
52.24	724.0
52.25	761.0
52.26	752.0
52.27	737.0
52.28	724.0
52.29	704.0
52.3	690.0
52.31	697.0
52.32	729.0
52.33	739.0
52.34	731.0
52.35	731.0
52.36	741.0
52.37	723.0
52.38	696.0
52.39	712.0
52.4	726.0
52.41	706.0
52.42	711.0
52.43	731.0
52.44	724.0
52.45	724.0
52.46	731.0
52.47	713.0
52.48	717.0
52.49	716.0
52.5	698.0
52.51	696.0
52.52	693.0
52.53	687.0
52.54	692.0
52.55	716.0
52.56	736.0
52.57	745.0
52.58	748.0
52.59	737.0
52.6	711.0
52.61	727.0
52.62	739.0
52.63	740.0
52.64	732.0
52.65	720.0
52.66	719.0
52.67	701.0
52.68	684.0
52.69	693.0
52.7	712.0
52.71	735.0
52.72	719.0
52.73	690.0
52.74	709.0
52.75	730.0
52.76	724.0
52.77	730.0
52.78	721.0
52.79	697.0
52.8	714.0
52.81	732.0
52.82	718.0
52.83	693.0
52.84	681.0
52.85	692.0
52.86	699.0
52.87	706.0
52.88	711.0
52.89	716.0
52.9	715.0
52.91	711.0
52.92	720.0
52.93	698.0
52.94	672.0
52.95	683.0
52.96	703.0
52.97	701.0
52.98	703.0
52.99	718.0
53.0	705.0
53.01	704.0
53.02	713.0
53.03	717.0
53.04	727.0
53.05	722.0
53.06	696.0
53.07	697.0
53.08	723.0
53.09	743.0
53.1	726.0
53.11	692.0
53.12	696.0
53.13	691.0
53.14	687.0
53.15	697.0
53.16	702.0
53.17	704.0
53.18	712.0
53.19	712.0
53.2	701.0
53.21	700.0
53.22	724.0
53.23	719.0
53.24	693.0
53.25	683.0
53.26	702.0
53.27	729.0
53.28	722.0
53.29	717.0
53.3	718.0
53.31	702.0
53.32	729.0
53.33	763.0
53.34	736.0
53.35	714.0
53.36	729.0
53.37	731.0
53.38	731.0
53.39	727.0
53.4	710.0
53.41	722.0
53.42	737.0
53.43	722.0
53.44	735.0
53.45	746.0
53.46	716.0
53.47	703.0
53.48	745.0
53.49	780.0
53.5	781.0
53.51	778.0
53.52	799.0
53.53	832.0
53.54	838.0
53.55	862.0
53.56	899.0
53.57	939.0
53.58	957.0
53.59	967.0
53.6	960.0
53.61	953.0
53.62	942.0
53.63	931.0
53.64	904.0
53.65	872.0
53.66	862.0
53.67	850.0
53.68	842.0
53.69	863.0
53.7	874.0
53.71	864.0
53.72	873.0
53.73	873.0
53.74	862.0
53.75	861.0
53.76	824.0
53.77	820.0
53.78	803.0
53.79	793.0
53.8	800.0
53.81	787.0
53.82	777.0
53.83	772.0
53.84	779.0
53.85	753.0
53.86	750.0
53.87	744.0
53.88	733.0
53.89	731.0
53.9	734.0
53.91	726.0
53.92	722.0
53.93	729.0
53.94	727.0
53.95	746.0
53.96	756.0
53.97	738.0
53.98	735.0
53.99	720.0
54.0	732.0
54.01	758.0
54.02	731.0
54.03	732.0
54.04	739.0
54.05	716.0
54.06	710.0
54.07	724.0
54.08	736.0
54.09	749.0
54.1	759.0
54.11	743.0
54.12	724.0
54.13	725.0
54.14	723.0
54.15	702.0
54.16	675.0
54.17	683.0
54.18	701.0
54.19	712.0
54.2	721.0
54.21	737.0
54.22	764.0
54.23	747.0
54.24	720.0
54.25	738.0
54.26	728.0
54.27	698.0
54.28	716.0
54.29	733.0
54.3	730.0
54.31	718.0
54.32	723.0
54.33	724.0
54.34	701.0
54.35	713.0
54.36	725.0
54.37	711.0
54.38	700.0
54.39	701.0
54.4	709.0
54.41	742.0
54.42	739.0
54.43	696.0
54.44	704.0
54.45	702.0
54.46	694.0
54.47	708.0
54.48	716.0
54.49	712.0
54.5	697.0
54.51	694.0
54.52	704.0
54.53	700.0
54.54	699.0
54.55	725.0
54.56	743.0
54.57	744.0
54.58	755.0
54.59	757.0
54.6	753.0
54.61	731.0
54.62	700.0
54.63	719.0
54.64	722.0
54.65	697.0
54.66	696.0
54.67	705.0
54.68	712.0
54.69	721.0
54.7	717.0
54.71	735.0
54.72	718.0
54.73	700.0
54.74	695.0
54.75	684.0
54.76	681.0
54.77	685.0
54.78	700.0
54.79	728.0
54.8	722.0
54.81	707.0
54.82	713.0
54.83	695.0
54.84	697.0
54.85	710.0
54.86	718.0
54.87	730.0
54.88	741.0
54.89	728.0
54.9	714.0
54.91	708.0
54.92	714.0
54.93	716.0
54.94	730.0
54.95	743.0
54.96	753.0
54.97	740.0
54.98	721.0
54.99	713.0
55.0	703.0
55.01	711.0
55.02	740.0
55.03	749.0
55.04	741.0
55.05	728.0
55.06	735.0
55.07	727.0
55.08	719.0
55.09	732.0
55.1	756.0
55.11	749.0
55.12	758.0
55.13	738.0
55.14	733.0
55.15	735.0
55.16	729.0
55.17	729.0
55.18	745.0
55.19	741.0
55.2	716.0
55.21	723.0
55.22	731.0
55.23	724.0
55.24	733.0
55.25	755.0
55.26	773.0
55.27	775.0
55.28	764.0
55.29	751.0
55.3	760.0
55.31	760.0
55.32	750.0
55.33	727.0
55.34	731.0
55.35	722.0
55.36	704.0
55.37	710.0
55.38	713.0
55.39	731.0
55.4	739.0
55.41	745.0
55.42	757.0
55.43	766.0
55.44	745.0
55.45	740.0
55.46	740.0
55.47	711.0
55.48	717.0
55.49	738.0
55.5	731.0
55.51	735.0
55.52	740.0
55.53	737.0
55.54	748.0
55.55	745.0
55.56	762.0
55.57	768.0
55.58	756.0
55.59	721.0
55.6	715.0
55.61	739.0
55.62	754.0
55.63	740.0
55.64	714.0
55.65	717.0
55.66	718.0
55.67	730.0
55.68	737.0
55.69	762.0
55.7	749.0
55.71	736.0
55.72	735.0
55.73	746.0
55.74	744.0
55.75	752.0
55.76	728.0
55.77	704.0
55.78	709.0
55.79	721.0
55.8	748.0
55.81	759.0
55.82	754.0
55.83	736.0
55.84	744.0
55.85	767.0
55.86	766.0
55.87	757.0
55.88	766.0
55.89	764.0
55.9	771.0
55.91	763.0
55.92	746.0
55.93	743.0
55.94	750.0
55.95	750.0
55.96	747.0
55.97	749.0
55.98	747.0
55.99	747.0
56.0	747.0
56.01	745.0
56.02	763.0
56.03	770.0
56.04	748.0
56.05	749.0
56.06	754.0
56.07	722.0
56.08	721.0
56.09	739.0
56.1	732.0
56.11	762.0
56.12	757.0
56.13	739.0
56.14	752.0
56.15	768.0
56.16	775.0
56.17	762.0
56.18	753.0
56.19	740.0
56.2	725.0
56.21	749.0
56.22	757.0
56.23	744.0
56.24	740.0
56.25	737.0
56.26	729.0
56.27	756.0
56.28	767.0
56.29	754.0
56.3	765.0
56.31	761.0
56.32	742.0
56.33	743.0
56.34	749.0
56.35	746.0
56.36	736.0
56.37	735.0
56.38	767.0
56.39	788.0
56.4	771.0
56.41	771.0
56.42	786.0
56.43	761.0
56.44	742.0
56.45	769.0
56.46	788.0
56.47	772.0
56.48	797.0
56.49	776.0
56.5	756.0
56.51	764.0
56.52	776.0
56.53	784.0
56.54	803.0
56.55	784.0
56.56	793.0
56.57	757.0
56.58	769.0
56.59	776.0
56.6	782.0
56.61	797.0
56.62	784.0
56.63	780.0
56.64	790.0
56.65	807.0
56.66	812.0
56.67	799.0
56.68	806.0
56.69	816.0
56.7	809.0
56.71	834.0
56.72	837.0
56.73	842.0
56.74	843.0
56.75	860.0
56.76	861.0
56.77	870.0
56.78	864.0
56.79	883.0
56.8	904.0
56.81	922.0
56.82	901.0
56.83	910.0
56.84	925.0
56.85	932.0
56.86	922.0
56.87	935.0
56.88	970.0
56.89	992.0
56.9	999.0
56.91	981.0
56.92	979.0
56.93	1019.0
56.94	1022.0
56.95	1021.0
56.96	1058.0
56.97	1102.0
56.98	1122.0
56.99	1142.0
57.0	1190.0
57.01	1284.0
57.02	1364.0
57.03	1445.0
57.04	1589.0
57.05	1801.0
57.06	2023.0
57.07	2289.0
57.08	2612.0
57.09	2957.0
57.1	3280.0
57.11	3622.0
57.12	3953.0
57.13	4071.0
57.14	4099.0
57.15	4124.0
57.16	3960.0
57.17	3664.0
57.18	3441.0
57.19	3198.0
57.2	3043.0
57.21	2904.0
57.22	2825.0
57.23	2825.0
57.24	2859.0
57.25	2879.0
57.26	2882.0
57.27	2954.0
57.28	2920.0
57.29	2879.0
57.3	2860.0
57.31	2721.0
57.32	2577.0
57.33	2408.0
57.34	2241.0
57.35	2057.0
57.36	1864.0
57.37	1761.0
57.38	1652.0
57.39	1566.0
57.4	1456.0
57.41	1419.0
57.42	1354.0
57.43	1256.0
57.44	1204.0
57.45	1157.0
57.46	1120.0
57.47	1121.0
57.48	1108.0
57.49	1058.0
57.5	994.0
57.51	965.0
57.52	955.0
57.53	939.0
57.54	922.0
57.55	904.0
57.56	907.0
57.57	894.0
57.58	913.0
57.59	918.0
57.6	890.0
57.61	853.0
57.62	874.0
57.63	886.0
57.64	861.0
57.65	837.0
57.66	852.0
57.67	851.0
57.68	830.0
57.69	840.0
57.7	832.0
57.71	836.0
57.72	831.0
57.73	820.0
57.74	819.0
57.75	797.0
57.76	810.0
57.77	827.0
57.78	815.0
57.79	771.0
57.8	790.0
57.81	792.0
57.82	780.0
57.83	786.0
57.84	777.0
57.85	766.0
57.86	734.0
57.87	729.0
57.88	749.0
57.89	764.0
57.9	776.0
57.91	752.0
57.92	738.0
57.93	756.0
57.94	749.0
57.95	754.0
57.96	772.0
57.97	780.0
57.98	773.0
57.99	770.0
58.0	775.0
58.01	781.0
58.02	790.0
58.03	788.0
58.04	769.0
58.05	755.0
58.06	753.0
58.07	756.0
58.08	735.0
58.09	756.0
58.1	774.0
58.11	754.0
58.12	731.0
58.13	737.0
58.14	783.0
58.15	778.0
58.16	768.0
58.17	767.0
58.18	733.0
58.19	716.0
58.2	750.0
58.21	741.0
58.22	729.0
58.23	745.0
58.24	763.0
58.25	765.0
58.26	760.0
58.27	740.0
58.28	730.0
58.29	736.0
58.3	736.0
58.31	737.0
58.32	739.0
58.33	770.0
58.34	777.0
58.35	779.0
58.36	774.0
58.37	746.0
58.38	731.0
58.39	733.0
58.4	730.0
58.41	732.0
58.42	727.0
58.43	730.0
58.44	735.0
58.45	748.0
58.46	728.0
58.47	734.0
58.48	750.0
58.49	748.0
58.5	755.0
58.51	779.0
58.52	765.0
58.53	751.0
58.54	767.0
58.55	742.0
58.56	702.0
58.57	728.0
58.58	736.0
58.59	741.0
58.6	750.0
58.61	747.0
58.62	766.0
58.63	780.0
58.64	770.0
58.65	728.0
58.66	721.0
58.67	720.0
58.68	699.0
58.69	726.0
58.7	717.0
58.71	722.0
58.72	736.0
58.73	764.0
58.74	750.0
58.75	746.0
58.76	750.0
58.77	749.0
58.78	736.0
58.79	729.0
58.8	732.0
58.81	716.0
58.82	720.0
58.83	758.0
58.84	738.0
58.85	733.0
58.86	765.0
58.87	765.0
58.88	748.0
58.89	729.0
58.9	733.0
58.91	733.0
58.92	741.0
58.93	725.0
58.94	714.0
58.95	727.0
58.96	739.0
58.97	757.0
58.98	751.0
58.99	736.0
59.0	728.0
59.01	728.0
59.02	740.0
59.03	721.0
59.04	725.0
59.05	737.0
59.06	734.0
59.07	757.0
59.08	763.0
59.09	747.0
59.1	757.0
59.11	742.0
59.12	724.0
59.13	728.0
59.14	738.0
59.15	752.0
59.16	735.0
59.17	743.0
59.18	741.0
59.19	729.0
59.2	743.0
59.21	746.0
59.22	740.0
59.23	728.0
59.24	735.0
59.25	739.0
59.26	755.0
59.27	738.0
59.28	744.0
59.29	747.0
59.3	747.0
59.31	744.0
59.32	759.0
59.33	753.0
59.34	746.0
59.35	764.0
59.36	774.0
59.37	734.0
59.38	707.0
59.39	728.0
59.4	721.0
59.41	718.0
59.42	752.0
59.43	760.0
59.44	733.0
59.45	726.0
59.46	729.0
59.47	717.0
59.48	736.0
59.49	740.0
59.5	732.0
59.51	733.0
59.52	728.0
59.53	748.0
59.54	748.0
59.55	759.0
59.56	720.0
59.57	714.0
59.58	728.0
59.59	747.0
59.6	736.0
59.61	725.0
59.62	737.0
59.63	730.0
59.64	755.0
59.65	749.0
59.66	729.0
59.67	725.0
59.68	722.0
59.69	722.0
59.7	744.0
59.71	735.0
59.72	742.0
59.73	742.0
59.74	734.0
59.75	734.0
59.76	751.0
59.77	765.0
59.78	777.0
59.79	747.0
59.8	725.0
59.81	722.0
59.82	728.0
59.83	749.0
59.84	752.0
59.85	743.0
59.86	748.0
59.87	758.0
59.88	749.0
59.89	753.0
59.9	786.0
59.91	736.0
59.92	710.0
59.93	750.0
59.94	755.0
59.95	753.0
59.96	750.0
59.97	731.0
59.98	730.0
59.99	750.0
60.0	742.0
60.01	724.0
60.02	728.0
60.03	762.0
60.04	745.0
60.05	737.0
60.06	746.0
60.07	731.0
60.08	741.0
60.09	736.0
60.1	729.0
60.11	737.0
60.12	730.0
60.13	763.0
60.14	760.0
60.15	745.0
60.16	758.0
60.17	742.0
60.18	733.0
60.19	727.0
60.2	729.0
60.21	735.0
60.22	734.0
60.23	725.0
60.24	758.0
60.25	736.0
60.26	710.0
60.27	744.0
60.28	757.0
60.29	761.0
60.3	753.0
60.31	726.0
60.32	725.0
60.33	739.0
60.34	713.0
60.35	727.0
60.36	742.0
60.37	762.0
60.38	773.0
60.39	725.0
60.4	728.0
60.41	753.0
60.42	756.0
60.43	754.0
60.44	748.0
60.45	743.0
60.46	767.0
60.47	775.0
60.48	754.0
60.49	733.0
60.5	714.0
60.51	726.0
60.52	722.0
60.53	708.0
60.54	719.0
60.55	750.0
60.56	793.0
60.57	797.0
60.58	801.0
60.59	768.0
60.6	750.0
60.61	770.0
60.62	782.0
60.63	761.0
60.64	730.0
60.65	739.0
60.66	761.0
60.67	762.0
60.68	766.0
60.69	792.0
60.7	790.0
60.71	810.0
60.72	801.0
60.73	787.0
60.74	776.0
60.75	770.0
60.76	787.0
60.77	806.0
60.78	783.0
60.79	736.0
60.8	740.0
60.81	767.0
60.82	763.0
60.83	763.0
60.84	753.0
60.85	775.0
60.86	760.0
60.87	771.0
60.88	758.0
60.89	747.0
60.9	760.0
60.91	765.0
60.92	769.0
60.93	772.0
60.94	766.0
60.95	718.0
60.96	716.0
60.97	721.0
60.98	765.0
60.99	757.0
61.0	757.0
61.01	750.0
61.02	737.0
61.03	745.0
61.04	746.0
61.05	736.0
61.06	739.0
61.07	768.0
61.08	742.0
61.09	751.0
61.1	751.0
61.11	756.0
61.12	751.0
61.13	741.0
61.14	737.0
61.15	760.0
61.16	766.0
61.17	775.0
61.18	730.0
61.19	705.0
61.2	756.0
61.21	780.0
61.22	770.0
61.23	738.0
61.24	753.0
61.25	750.0
61.26	755.0
61.27	741.0
61.28	740.0
61.29	722.0
61.3	730.0
61.31	737.0
61.32	767.0
61.33	785.0
61.34	763.0
61.35	732.0
61.36	737.0
61.37	749.0
61.38	753.0
61.39	739.0
61.4	758.0
61.41	770.0
61.42	768.0
61.43	781.0
61.44	780.0
61.45	794.0
61.46	777.0
61.47	758.0
61.48	783.0
61.49	782.0
61.5	759.0
61.51	765.0
61.52	775.0
61.53	768.0
61.54	774.0
61.55	786.0
61.56	752.0
61.57	734.0
61.58	761.0
61.59	754.0
61.6	740.0
61.61	730.0
61.62	742.0
61.63	798.0
61.64	769.0
61.65	773.0
61.66	786.0
61.67	758.0
61.68	720.0
61.69	733.0
61.7	754.0
61.71	747.0
61.72	755.0
61.73	769.0
61.74	782.0
61.75	765.0
61.76	762.0
61.77	754.0
61.78	743.0
61.79	735.0
61.8	740.0
61.81	760.0
61.82	742.0
61.83	751.0
61.84	786.0
61.85	776.0
61.86	773.0
61.87	763.0
61.88	762.0
61.89	741.0
61.9	752.0
61.91	775.0
61.92	766.0
61.93	748.0
61.94	761.0
61.95	760.0
61.96	806.0
61.97	824.0
61.98	802.0
61.99	796.0
62.0	775.0
62.01	794.0
62.02	819.0
62.03	803.0
62.04	778.0
62.05	773.0
62.06	792.0
62.07	794.0
62.08	774.0
62.09	796.0
62.1	799.0
62.11	780.0
62.12	768.0
62.13	777.0
62.14	797.0
62.15	775.0
62.16	819.0
62.17	816.0
62.18	812.0
62.19	843.0
62.2	816.0
62.21	788.0
62.22	792.0
62.23	798.0
62.24	832.0
62.25	823.0
62.26	846.0
62.27	848.0
62.28	856.0
62.29	884.0
62.3	892.0
62.31	897.0
62.32	887.0
62.33	881.0
62.34	902.0
62.35	918.0
62.36	932.0
62.37	910.0
62.38	938.0
62.39	963.0
62.4	970.0
62.41	972.0
62.42	983.0
62.43	1041.0
62.44	1009.0
62.45	1040.0
62.46	1072.0
62.47	1051.0
62.48	1048.0
62.49	1039.0
62.5	1122.0
62.51	1175.0
62.52	1116.0
62.53	1173.0
62.54	1191.0
62.55	1183.0
62.56	1218.0
62.57	1286.0
62.58	1305.0
62.59	1365.0
62.6	1454.0
62.61	1545.0
62.62	1656.0
62.63	1839.0
62.64	1979.0
62.65	2275.0
62.66	2682.0
62.67	3031.0
62.68	3504.0
62.69	4066.0
62.7	4576.0
62.71	5170.0
62.72	5582.0
62.73	5971.0
62.74	6177.0
62.75	6220.0
62.76	5949.0
62.77	5563.0
62.78	5134.0
62.79	4689.0
62.8	4272.0
62.81	4016.0
62.82	3891.0
62.83	3770.0
62.84	3701.0
62.85	3758.0
62.86	3784.0
62.87	3854.0
62.88	3933.0
62.89	4125.0
62.9	4277.0
62.91	4262.0
62.92	4161.0
62.93	4006.0
62.94	3687.0
62.95	3434.0
62.96	3199.0
62.97	2872.0
62.98	2586.0
62.99	2392.0
63.0	2190.0
63.01	2073.0
63.02	1887.0
63.03	1785.0
63.04	1735.0
63.05	1633.0
63.06	1575.0
63.07	1489.0
63.08	1358.0
63.09	1325.0
63.1	1265.0
63.11	1247.0
63.12	1163.0
63.13	1137.0
63.14	1139.0
63.15	1117.0
63.16	1087.0
63.17	1048.0
63.18	1008.0
63.19	997.0
63.2	1010.0
63.21	963.0
63.22	955.0
63.23	974.0
63.24	945.0
63.25	912.0
63.26	894.0
63.27	890.0
63.28	931.0
63.29	913.0
63.3	878.0
63.31	887.0
63.32	853.0
63.33	856.0
63.34	867.0
63.35	860.0
63.36	847.0
63.37	849.0
63.38	834.0
63.39	840.0
63.4	840.0
63.41	839.0
63.42	833.0
63.43	835.0
63.44	814.0
63.45	809.0
63.46	811.0
63.47	812.0
63.48	825.0
63.49	814.0
63.5	797.0
63.51	827.0
63.52	759.0
63.53	757.0
63.54	788.0
63.55	772.0
63.56	792.0
63.57	796.0
63.58	750.0
63.59	788.0
63.6	784.0
63.61	752.0
63.62	777.0
63.63	814.0
63.64	801.0
63.65	775.0
63.66	748.0
63.67	770.0
63.68	783.0
63.69	799.0
63.7	787.0
63.71	769.0
63.72	804.0
63.73	793.0
63.74	757.0
63.75	777.0
63.76	768.0
63.77	731.0
63.78	751.0
63.79	807.0
63.8	805.0
63.81	770.0
63.82	736.0
63.83	766.0
63.84	802.0
63.85	766.0
63.86	744.0
63.87	770.0
63.88	787.0
63.89	772.0
63.9	781.0
63.91	748.0
63.92	723.0
63.93	757.0
63.94	731.0
63.95	741.0
63.96	750.0
63.97	761.0
63.98	763.0
63.99	740.0
64.0	745.0
64.01	760.0
64.02	737.0
64.03	731.0
64.04	726.0
64.05	727.0
64.06	738.0
64.07	763.0
64.08	752.0
64.09	745.0
64.1	771.0
64.11	742.0
64.12	723.0
64.13	727.0
64.14	761.0
64.15	770.0
64.16	762.0
64.17	767.0
64.18	771.0
64.19	748.0
64.2	750.0
64.21	737.0
64.22	758.0
64.23	761.0
64.24	752.0
64.25	697.0
64.26	711.0
64.27	753.0
64.28	745.0
64.29	741.0
64.3	757.0
64.31	764.0
64.32	769.0
64.33	769.0
64.34	757.0
64.35	740.0
64.36	744.0
64.37	703.0
64.38	741.0
64.39	755.0
64.4	737.0
64.41	731.0
64.42	727.0
64.43	717.0
64.44	745.0
64.45	750.0
64.46	729.0
64.47	743.0
64.48	758.0
64.49	732.0
64.5	732.0
64.51	746.0
64.52	758.0
64.53	736.0
64.54	720.0
64.55	735.0
64.56	704.0
64.57	734.0
64.58	750.0
64.59	767.0
64.6	752.0
64.61	722.0
64.62	720.0
64.63	707.0
64.64	715.0
64.65	736.0
64.66	715.0
64.67	693.0
64.68	698.0
64.69	730.0
64.7	731.0
64.71	767.0
64.72	747.0
64.73	717.0
64.74	740.0
64.75	730.0
64.76	717.0
64.77	736.0
64.78	707.0
64.79	702.0
64.8	735.0
64.81	745.0
64.82	742.0
64.83	744.0
64.84	729.0
64.85	713.0
64.86	690.0
64.87	726.0
64.88	728.0
64.89	726.0
64.9	709.0
64.91	728.0
64.92	716.0
64.93	742.0
64.94	743.0
64.95	738.0
64.96	769.0
64.97	724.0
64.98	730.0
64.99	713.0
65.0	746.0
65.01	718.0
65.02	756.0
65.03	760.0
65.04	759.0
65.05	702.0
65.06	720.0
65.07	736.0
65.08	756.0
65.09	760.0
65.1	756.0
65.11	747.0
65.12	708.0
65.13	711.0
65.14	729.0
65.15	707.0
65.16	758.0
65.17	806.0
65.18	760.0
65.19	736.0
65.2	718.0
65.21	730.0
65.22	716.0
65.23	721.0
65.24	724.0
65.25	737.0
65.26	753.0
65.27	761.0
65.28	737.0
65.29	720.0
65.3	747.0
65.31	750.0
65.32	737.0
65.33	735.0
65.34	719.0
65.35	716.0
65.36	749.0
65.37	742.0
65.38	756.0
65.39	725.0
65.4	709.0
65.41	732.0
65.42	735.0
65.43	714.0
65.44	737.0
65.45	735.0
65.46	756.0
65.47	722.0
65.48	735.0
65.49	751.0
65.5	758.0
65.51	765.0
65.52	781.0
65.53	761.0
65.54	779.0
65.55	755.0
65.56	751.0
65.57	759.0
65.58	789.0
65.59	777.0
65.6	742.0
65.61	731.0
65.62	784.0
65.63	758.0
65.64	751.0
65.65	765.0
65.66	764.0
65.67	810.0
65.68	780.0
65.69	772.0
65.7	778.0
65.71	782.0
65.72	778.0
65.73	793.0
65.74	791.0
65.75	813.0
65.76	825.0
65.77	808.0
65.78	829.0
65.79	845.0
65.8	846.0
65.81	874.0
65.82	874.0
65.83	864.0
65.84	902.0
65.85	927.0
65.86	953.0
65.87	979.0
65.88	1015.0
65.89	1116.0
65.9	1193.0
65.91	1310.0
65.92	1341.0
65.93	1495.0
65.94	1633.0
65.95	1740.0
65.96	1806.0
65.97	1784.0
65.98	1752.0
65.99	1701.0
66.0	1638.0
66.01	1568.0
66.02	1467.0
66.03	1390.0
66.04	1391.0
66.05	1365.0
66.06	1308.0
66.07	1270.0
66.08	1318.0
66.09	1343.0
66.1	1295.0
66.11	1292.0
66.12	1362.0
66.13	1408.0
66.14	1384.0
66.15	1405.0
66.16	1424.0
66.17	1374.0
66.18	1319.0
66.19	1233.0
66.2	1169.0
66.21	1114.0
66.22	1069.0
66.23	1078.0
66.24	1025.0
66.25	1048.0
66.26	1031.0
66.27	935.0
66.28	926.0
66.29	906.0
66.3	889.0
66.31	897.0
66.32	894.0
66.33	894.0
66.34	843.0
66.35	830.0
66.36	788.0
66.37	803.0
66.38	829.0
66.39	761.0
66.4	771.0
66.41	786.0
66.42	750.0
66.43	760.0
66.44	790.0
66.45	769.0
66.46	720.0
66.47	761.0
66.48	761.0
66.49	771.0
66.5	771.0
66.51	748.0
66.52	731.0
66.53	731.0
66.54	728.0
66.55	758.0
66.56	777.0
66.57	775.0
66.58	776.0
66.59	768.0
66.6	762.0
66.61	737.0
66.62	732.0
66.63	753.0
66.64	736.0
66.65	714.0
66.66	764.0
66.67	743.0
66.68	727.0
66.69	728.0
66.7	738.0
66.71	737.0
66.72	720.0
66.73	725.0
66.74	746.0
66.75	724.0
66.76	711.0
66.77	716.0
66.78	733.0
66.79	727.0
66.8	714.0
66.81	722.0
66.82	713.0
66.83	722.0
66.84	715.0
66.85	706.0
66.86	696.0
66.87	703.0
66.88	751.0
66.89	714.0
66.9	738.0
66.91	724.0
66.92	754.0
66.93	738.0
66.94	721.0
66.95	692.0
66.96	706.0
66.97	716.0
66.98	673.0
66.99	699.0
67.0	704.0
67.01	729.0
67.02	715.0
67.03	705.0
67.04	721.0
67.05	712.0
67.06	754.0
67.07	734.0
67.08	719.0
67.09	721.0
67.1	737.0
67.11	718.0
67.12	713.0
67.13	706.0
67.14	709.0
67.15	719.0
67.16	703.0
67.17	721.0
67.18	724.0
67.19	709.0
67.2	696.0
67.21	713.0
67.22	732.0
67.23	731.0
67.24	711.0
67.25	725.0
67.26	741.0
67.27	711.0
67.28	703.0
67.29	720.0
67.3	716.0
67.31	693.0
67.32	662.0
67.33	698.0
67.34	715.0
67.35	711.0
67.36	733.0
67.37	749.0
67.38	700.0
67.39	731.0
67.4	704.0
67.41	688.0
67.42	672.0
67.43	686.0
67.44	702.0
67.45	713.0
67.46	718.0
67.47	737.0
67.48	708.0
67.49	677.0
67.5	699.0
67.51	723.0
67.52	720.0
67.53	721.0
67.54	712.0
67.55	745.0
67.56	707.0
67.57	728.0
67.58	717.0
67.59	735.0
67.6	720.0
67.61	713.0
67.62	700.0
67.63	729.0
67.64	718.0
67.65	714.0
67.66	714.0
67.67	675.0
67.68	697.0
67.69	714.0
67.7	707.0
67.71	696.0
67.72	714.0
67.73	742.0
67.74	733.0
67.75	721.0
67.76	712.0
67.77	704.0
67.78	668.0
67.79	680.0
67.8	702.0
67.81	657.0
67.82	693.0
67.83	694.0
67.84	711.0
67.85	718.0
67.86	696.0
67.87	683.0
67.88	698.0
67.89	742.0
67.9	731.0
67.91	710.0
67.92	675.0
67.93	690.0
67.94	700.0
67.95	698.0
67.96	727.0
67.97	702.0
67.98	719.0
67.99	712.0
68.0	701.0
68.01	711.0
68.02	733.0
68.03	666.0
68.04	668.0
68.05	715.0
68.06	691.0
68.07	732.0
68.08	760.0
68.09	724.0
68.1	731.0
68.11	721.0
68.12	701.0
68.13	684.0
68.14	693.0
68.15	707.0
68.16	710.0
68.17	700.0
68.18	710.0
68.19	708.0
68.2	685.0
68.21	694.0
68.22	704.0
68.23	687.0
68.24	701.0
68.25	744.0
68.26	714.0
68.27	691.0
68.28	691.0
68.29	726.0
68.3	716.0
68.31	696.0
68.32	698.0
68.33	720.0
68.34	710.0
68.35	705.0
68.36	697.0
68.37	709.0
68.38	686.0
68.39	718.0
68.4	713.0
68.41	708.0
68.42	703.0
68.43	735.0
68.44	690.0
68.45	677.0
68.46	704.0
68.47	721.0
68.48	714.0
68.49	738.0
68.5	732.0
68.51	744.0
68.52	740.0
68.53	737.0
68.54	718.0
68.55	718.0
68.56	733.0
68.57	695.0
68.58	699.0
68.59	701.0
68.6	692.0
68.61	701.0
68.62	708.0
68.63	678.0
68.64	681.0
68.65	703.0
68.66	706.0
68.67	699.0
68.68	687.0
68.69	732.0
68.7	711.0
68.71	708.0
68.72	734.0
68.73	695.0
68.74	700.0
68.75	699.0
68.76	688.0
68.77	690.0
68.78	711.0
68.79	718.0
68.8	724.0
68.81	738.0
68.82	710.0
68.83	700.0
68.84	696.0
68.85	702.0
68.86	715.0
68.87	688.0
68.88	705.0
68.89	768.0
68.9	757.0
68.91	727.0
68.92	717.0
68.93	693.0
68.94	698.0
68.95	700.0
68.96	724.0
68.97	733.0
68.98	735.0
68.99	743.0
69.0	702.0
69.01	707.0
69.02	701.0
69.03	715.0
69.04	706.0
69.05	693.0
69.06	693.0
69.07	699.0
69.08	686.0
69.09	699.0
69.1	697.0
69.11	698.0
69.12	706.0
69.13	717.0
69.14	694.0
69.15	695.0
69.16	699.0
69.17	684.0
69.18	680.0
69.19	692.0
69.2	703.0
69.21	727.0
69.22	722.0
69.23	696.0
69.24	714.0
69.25	758.0
69.26	719.0
69.27	733.0
69.28	712.0
69.29	703.0
69.3	674.0
69.31	695.0
69.32	719.0
69.33	707.0
69.34	721.0
69.35	699.0
69.36	683.0
69.37	689.0
69.38	694.0
69.39	705.0
69.4	696.0
69.41	690.0
69.42	680.0
69.43	682.0
69.44	694.0
69.45	729.0
69.46	695.0
69.47	661.0
69.48	685.0
69.49	701.0
69.5	735.0
69.51	742.0
69.52	705.0
69.53	720.0
69.54	715.0
69.55	665.0
69.56	665.0
69.57	669.0
69.58	690.0
69.59	692.0
69.6	674.0
69.61	672.0
69.62	673.0
69.63	676.0
69.64	675.0
69.65	698.0
69.66	733.0
69.67	722.0
69.68	700.0
69.69	677.0
69.7	717.0
69.71	724.0
69.72	710.0
69.73	666.0
69.74	689.0
69.75	700.0
69.76	676.0
69.77	682.0
69.78	702.0
69.79	699.0
69.8	686.0
69.81	702.0
69.82	706.0
69.83	667.0
69.84	676.0
69.85	680.0
69.86	675.0
69.87	691.0
69.88	697.0
69.89	709.0
69.9	730.0
69.91	696.0
69.92	701.0
69.93	689.0
69.94	706.0
69.95	686.0
69.96	684.0
69.97	706.0
69.98	701.0
69.99	665.0
70.0	673.0
70.01	681.0
70.02	673.0
70.03	685.0
70.04	719.0
70.05	663.0
70.06	680.0
70.07	665.0
70.08	681.0
70.09	661.0
70.1	692.0
70.11	682.0
70.12	683.0
70.13	677.0
70.14	699.0
70.15	696.0
70.16	688.0
70.17	678.0
70.18	689.0
70.19	691.0
70.2	702.0
70.21	682.0
70.22	675.0
70.23	675.0
70.24	694.0
70.25	715.0
70.26	710.0
70.27	720.0
70.28	722.0
70.29	723.0
70.3	672.0
70.31	653.0
70.32	657.0
70.33	658.0
70.34	676.0
70.35	666.0
70.36	689.0
70.37	724.0
70.38	738.0
70.39	717.0
70.4	690.0
70.41	683.0
70.42	667.0
70.43	681.0
70.44	683.0
70.45	671.0
70.46	702.0
70.47	739.0
70.48	714.0
70.49	648.0
70.5	660.0
70.51	699.0
70.52	691.0
70.53	673.0
70.54	742.0
70.55	695.0
70.56	664.0
70.57	698.0
70.58	684.0
70.59	689.0
70.6	684.0
70.61	683.0
70.62	677.0
70.63	694.0
70.64	670.0
70.65	661.0
70.66	673.0
70.67	669.0
70.68	679.0
70.69	694.0
70.7	685.0
70.71	677.0
70.72	670.0
70.73	711.0
70.74	724.0
70.75	709.0
70.76	699.0
70.77	710.0
70.78	716.0
70.79	657.0
70.8	701.0
70.81	675.0
70.82	677.0
70.83	666.0
70.84	656.0
70.85	677.0
70.86	683.0
70.87	688.0
70.88	696.0
70.89	714.0
70.9	697.0
70.91	713.0
70.92	678.0
70.93	670.0
70.94	707.0
70.95	716.0
70.96	710.0
70.97	727.0
70.98	711.0
70.99	698.0
71.0	676.0
71.01	698.0
71.02	679.0
71.03	656.0
71.04	659.0
71.05	675.0
71.06	706.0
71.07	728.0
71.08	724.0
71.09	728.0
71.1	749.0
71.11	769.0
71.12	736.0
71.13	739.0
71.14	715.0
71.15	744.0
71.16	753.0
71.17	734.0
71.18	786.0
71.19	748.0
71.2	734.0
71.21	735.0
71.22	713.0
71.23	730.0
71.24	725.0
71.25	713.0
71.26	712.0
71.27	735.0
71.28	755.0
71.29	731.0
71.3	709.0
71.31	713.0
71.32	731.0
71.33	730.0
71.34	759.0
71.35	752.0
71.36	757.0
71.37	728.0
71.38	700.0
71.39	713.0
71.4	737.0
71.41	731.0
71.42	742.0
71.43	707.0
71.44	729.0
71.45	738.0
71.46	716.0
71.47	716.0
71.48	688.0
71.49	671.0
71.5	714.0
71.51	700.0
71.52	674.0
71.53	701.0
71.54	690.0
71.55	679.0
71.56	669.0
71.57	686.0
71.58	674.0
71.59	670.0
71.6	699.0
71.61	673.0
71.62	680.0
71.63	699.0
71.64	742.0
71.65	658.0
71.66	676.0
71.67	688.0
71.68	654.0
71.69	670.0
71.7	666.0
71.71	679.0
71.72	697.0
71.73	685.0
71.74	685.0
71.75	670.0
71.76	632.0
71.77	661.0
71.78	657.0
71.79	675.0
71.8	704.0
71.81	682.0
71.82	697.0
71.83	681.0
71.84	692.0
71.85	667.0
71.86	643.0
71.87	659.0
71.88	670.0
71.89	688.0
71.9	695.0
71.91	672.0
71.92	678.0
71.93	663.0
71.94	668.0
71.95	674.0
71.96	674.0
71.97	682.0
71.98	638.0
71.99	671.0
72.0	691.0
72.01	677.0
72.02	668.0
72.03	647.0
72.04	679.0
72.05	691.0
72.06	710.0
72.07	684.0
72.08	662.0
72.09	673.0
72.1	673.0
72.11	695.0
72.12	702.0
72.13	707.0
72.14	699.0
72.15	691.0
72.16	673.0
72.17	691.0
72.18	687.0
72.19	728.0
72.2	718.0
72.21	705.0
72.22	662.0
72.23	674.0
72.24	676.0
72.25	678.0
72.26	660.0
72.27	659.0
72.28	674.0
72.29	681.0
72.3	706.0
72.31	688.0
72.32	692.0
72.33	664.0
72.34	656.0
72.35	677.0
72.36	741.0
72.37	716.0
72.38	697.0
72.39	693.0
72.4	692.0
72.41	664.0
72.42	671.0
72.43	637.0
72.44	659.0
72.45	668.0
72.46	673.0
72.47	678.0
72.48	666.0
72.49	695.0
72.5	699.0
72.51	694.0
72.52	687.0
72.53	665.0
72.54	671.0
72.55	689.0
72.56	685.0
72.57	657.0
72.58	658.0
72.59	655.0
72.6	649.0
72.61	654.0
72.62	682.0
72.63	687.0
72.64	667.0
72.65	671.0
72.66	664.0
72.67	685.0
72.68	676.0
72.69	658.0
72.7	685.0
72.71	669.0
72.72	631.0
72.73	656.0
72.74	684.0
72.75	705.0
72.76	724.0
72.77	721.0
72.78	705.0
72.79	692.0
72.8	677.0
72.81	696.0
72.82	680.0
72.83	657.0
72.84	673.0
72.85	690.0
72.86	685.0
72.87	708.0
72.88	672.0
72.89	655.0
72.9	660.0
72.91	679.0
72.92	661.0
72.93	695.0
72.94	675.0
72.95	658.0
72.96	674.0
72.97	689.0
72.98	679.0
72.99	649.0
73.0	652.0
73.01	662.0
73.02	686.0
73.03	665.0
73.04	670.0
73.05	682.0
73.06	707.0
73.07	699.0
73.08	681.0
73.09	642.0
73.1	679.0
73.11	668.0
73.12	650.0
73.13	676.0
73.14	683.0
73.15	667.0
73.16	662.0
73.17	672.0
73.18	659.0
73.19	668.0
73.2	649.0
73.21	644.0
73.22	672.0
73.23	684.0
73.24	687.0
73.25	670.0
73.26	690.0
73.27	673.0
73.28	683.0
73.29	649.0
73.3	655.0
73.31	660.0
73.32	678.0
73.33	671.0
73.34	677.0
73.35	671.0
73.36	687.0
73.37	671.0
73.38	676.0
73.39	675.0
73.4	696.0
73.41	673.0
73.42	680.0
73.43	698.0
73.44	671.0
73.45	650.0
73.46	661.0
73.47	693.0
73.48	681.0
73.49	651.0
73.5	661.0
73.51	669.0
73.52	694.0
73.53	679.0
73.54	683.0
73.55	694.0
73.56	675.0
73.57	679.0
73.58	651.0
73.59	655.0
73.6	662.0
73.61	726.0
73.62	724.0
73.63	725.0
73.64	685.0
73.65	653.0
73.66	690.0
73.67	691.0
73.68	689.0
73.69	678.0
73.7	692.0
73.71	690.0
73.72	693.0
73.73	685.0
73.74	663.0
73.75	678.0
73.76	670.0
73.77	707.0
73.78	734.0
73.79	715.0
73.8	687.0
73.81	661.0
73.82	666.0
73.83	693.0
73.84	721.0
73.85	742.0
73.86	711.0
73.87	711.0
73.88	697.0
73.89	714.0
73.9	756.0
73.91	749.0
73.92	697.0
73.93	669.0
73.94	684.0
73.95	679.0
73.96	688.0
73.97	695.0
73.98	702.0
73.99	738.0
74.0	726.0
74.01	719.0
74.02	711.0
74.03	738.0
74.04	751.0
74.05	758.0
74.06	744.0
74.07	765.0
74.08	781.0
74.09	799.0
74.1	823.0
74.11	812.0
74.12	874.0
74.13	933.0
74.14	958.0
74.15	981.0
74.16	1080.0
74.17	1156.0
74.18	1233.0
74.19	1317.0
74.2	1398.0
74.21	1448.0
74.22	1442.0
74.23	1407.0
74.24	1364.0
74.25	1343.0
74.26	1286.0
74.27	1200.0
74.28	1159.0
74.29	1152.0
74.3	1120.0
74.31	1067.0
74.32	1029.0
74.33	1047.0
74.34	1040.0
74.35	1018.0
74.36	1051.0
74.37	1064.0
74.38	1058.0
74.39	1086.0
74.4	1087.0
74.41	1126.0
74.42	1153.0
74.43	1187.0
74.44	1136.0
74.45	1129.0
74.46	1116.0
74.47	1048.0
74.48	1022.0
74.49	989.0
74.5	935.0
74.51	909.0
74.52	899.0
74.53	894.0
74.54	875.0
74.55	825.0
74.56	832.0
74.57	827.0
74.58	807.0
74.59	781.0
74.6	787.0
74.61	804.0
74.62	792.0
74.63	757.0
74.64	768.0
74.65	768.0
74.66	765.0
74.67	763.0
74.68	749.0
74.69	755.0
74.7	734.0
74.71	728.0
74.72	745.0
74.73	739.0
74.74	678.0
74.75	705.0
74.76	701.0
74.77	690.0
74.78	720.0
74.79	740.0
74.8	698.0
74.81	698.0
74.82	704.0
74.83	724.0
74.84	693.0
74.85	710.0
74.86	731.0
74.87	727.0
74.88	718.0
74.89	679.0
74.9	667.0
74.91	692.0
74.92	702.0
74.93	679.0
74.94	660.0
74.95	692.0
74.96	685.0
74.97	676.0
74.98	676.0
74.99	717.0
75.0	746.0
75.01	721.0
75.02	735.0
75.03	745.0
75.04	734.0
75.05	716.0
75.06	719.0
75.07	741.0
75.08	777.0
75.09	806.0
75.1	779.0
75.11	767.0
75.12	788.0
75.13	772.0
75.14	831.0
75.15	876.0
75.16	924.0
75.17	951.0
75.18	983.0
75.19	1061.0
75.2	1131.0
75.21	1140.0
75.22	1121.0
75.23	1086.0
75.24	1135.0
75.25	1097.0
75.26	1070.0
75.27	1059.0
75.28	1025.0
75.29	957.0
75.3	941.0
75.31	955.0
75.32	920.0
75.33	916.0
75.34	911.0
75.35	899.0
75.36	885.0
75.37	859.0
75.38	883.0
75.39	895.0
75.4	895.0
75.41	869.0
75.42	926.0
75.43	978.0
75.44	989.0
75.45	988.0
75.46	971.0
75.47	929.0
75.48	897.0
75.49	872.0
75.5	836.0
75.51	832.0
75.52	826.0
75.53	817.0
75.54	810.0
75.55	789.0
75.56	764.0
75.57	765.0
75.58	741.0
75.59	767.0
75.6	717.0
75.61	732.0
75.62	702.0
75.63	733.0
75.64	726.0
75.65	742.0
75.66	680.0
75.67	679.0
75.68	685.0
75.69	700.0
75.7	706.0
75.71	675.0
75.72	662.0
75.73	684.0
75.74	711.0
75.75	701.0
75.76	696.0
75.77	673.0
75.78	684.0
75.79	662.0
75.8	674.0
75.81	673.0
75.82	670.0
75.83	665.0
75.84	696.0
75.85	705.0
75.86	690.0
75.87	677.0
75.88	692.0
75.89	718.0
75.9	687.0
75.91	648.0
75.92	658.0
75.93	689.0
75.94	664.0
75.95	676.0
75.96	681.0
75.97	672.0
75.98	662.0
75.99	662.0
76.0	679.0
76.01	674.0
76.02	667.0
76.03	661.0
76.04	692.0
76.05	700.0
76.06	658.0
76.07	651.0
76.08	657.0
76.09	660.0
76.1	655.0
76.11	657.0
76.12	666.0
76.13	677.0
76.14	672.0
76.15	657.0
76.16	665.0
76.17	678.0
76.18	667.0
76.19	631.0
76.2	619.0
76.21	617.0
76.22	629.0
76.23	659.0
76.24	693.0
76.25	669.0
76.26	674.0
76.27	656.0
76.28	648.0
76.29	653.0
76.3	660.0
76.31	676.0
76.32	653.0
76.33	669.0
76.34	667.0
76.35	657.0
76.36	666.0
76.37	692.0
76.38	660.0
76.39	650.0
76.4	648.0
76.41	646.0
76.42	659.0
76.43	685.0
76.44	688.0
76.45	670.0
76.46	665.0
76.47	675.0
76.48	674.0
76.49	656.0
76.5	647.0
76.51	675.0
76.52	665.0
76.53	661.0
76.54	697.0
76.55	689.0
76.56	644.0
76.57	614.0
76.58	638.0
76.59	669.0
76.6	679.0
76.61	667.0
76.62	641.0
76.63	652.0
76.64	637.0
76.65	625.0
76.66	638.0
76.67	646.0
76.68	637.0
76.69	654.0
76.7	646.0
76.71	650.0
76.72	678.0
76.73	656.0
76.74	659.0
76.75	654.0
76.76	683.0
76.77	680.0
76.78	645.0
76.79	615.0
76.8	633.0
76.81	649.0
76.82	641.0
76.83	660.0
76.84	661.0
76.85	688.0
76.86	665.0
76.87	650.0
76.88	665.0
76.89	619.0
76.9	626.0
76.91	633.0
76.92	669.0
76.93	688.0
76.94	702.0
76.95	671.0
76.96	645.0
76.97	654.0
76.98	658.0
76.99	656.0
77.0	639.0
77.01	666.0
77.02	645.0
77.03	647.0
77.04	646.0
77.05	652.0
77.06	645.0
77.07	658.0
77.08	651.0
77.09	628.0
77.1	659.0
77.11	621.0
77.12	639.0
77.13	636.0
77.14	640.0
77.15	632.0
77.16	622.0
77.17	647.0
77.18	656.0
77.19	675.0
77.2	665.0
77.21	641.0
77.22	673.0
77.23	691.0
77.24	643.0
77.25	656.0
77.26	629.0
77.27	650.0
77.28	633.0
77.29	658.0
77.3	651.0
77.31	627.0
77.32	634.0
77.33	657.0
77.34	642.0
77.35	620.0
77.36	620.0
77.37	607.0
77.38	634.0
77.39	651.0
77.4	635.0
77.41	624.0
77.42	637.0
77.43	644.0
77.44	660.0
77.45	670.0
77.46	652.0
77.47	633.0
77.48	636.0
77.49	645.0
77.5	655.0
77.51	670.0
77.52	658.0
77.53	663.0
77.54	705.0
77.55	673.0
77.56	647.0
77.57	679.0
77.58	650.0
77.59	637.0
77.6	651.0
77.61	621.0
77.62	625.0
77.63	641.0
77.64	632.0
77.65	621.0
77.66	652.0
77.67	660.0
77.68	625.0
77.69	608.0
77.7	623.0
77.71	639.0
77.72	630.0
77.73	659.0
77.74	674.0
77.75	660.0
77.76	637.0
77.77	644.0
77.78	651.0
77.79	656.0
77.8	630.0
77.81	647.0
77.82	660.0
77.83	646.0
77.84	663.0
77.85	645.0
77.86	638.0
77.87	633.0
77.88	648.0
77.89	652.0
77.9	650.0
77.91	665.0
77.92	646.0
77.93	623.0
77.94	632.0
77.95	625.0
77.96	614.0
77.97	640.0
77.98	659.0
77.99	646.0
78.0	650.0
78.01	663.0
78.02	662.0
78.03	646.0
78.04	658.0
78.05	654.0
78.06	653.0
78.07	670.0
78.08	658.0
78.09	631.0
78.1	617.0
78.11	602.0
78.12	650.0
78.13	631.0
78.14	642.0
78.15	621.0
78.16	618.0
78.17	649.0
78.18	657.0
78.19	652.0
78.2	643.0
78.21	659.0
78.22	655.0
78.23	649.0
78.24	605.0
78.25	622.0
78.26	635.0
78.27	630.0
78.28	620.0
78.29	612.0
78.3	633.0
78.31	662.0
78.32	627.0
78.33	632.0
78.34	618.0
78.35	635.0
78.36	643.0
78.37	681.0
78.38	650.0
78.39	647.0
78.4	637.0
78.41	641.0
78.42	647.0
78.43	671.0
78.44	653.0
78.45	630.0
78.46	627.0
78.47	648.0
78.48	644.0
78.49	628.0
78.5	620.0
78.51	633.0
78.52	629.0
78.53	630.0
78.54	656.0
78.55	677.0
78.56	611.0
78.57	650.0
78.58	668.0
78.59	674.0
78.6	654.0
78.61	645.0
78.62	660.0
78.63	639.0
78.64	633.0
78.65	681.0
78.66	694.0
78.67	646.0
78.68	647.0
78.69	674.0
78.7	706.0
78.71	687.0
78.72	622.0
78.73	632.0
78.74	661.0
78.75	672.0
78.76	683.0
78.77	673.0
78.78	661.0
78.79	662.0
78.8	667.0
78.81	660.0
78.82	659.0
78.83	670.0
78.84	676.0
78.85	683.0
78.86	678.0
78.87	692.0
78.88	688.0
78.89	655.0
78.9	653.0
78.91	680.0
78.92	696.0
78.93	674.0
78.94	680.0
78.95	693.0
78.96	692.0
78.97	708.0
78.98	709.0
78.99	663.0
79.0	682.0
79.01	664.0
79.02	725.0
79.03	737.0
79.04	733.0
79.05	755.0
79.06	737.0
79.07	734.0
79.08	768.0
79.09	840.0
79.1	855.0
79.11	865.0
79.12	906.0
79.13	969.0
79.14	1039.0
79.15	1136.0
79.16	1240.0
79.17	1352.0
79.18	1390.0
79.19	1395.0
79.2	1426.0
79.21	1419.0
79.22	1429.0
79.23	1367.0
79.24	1267.0
79.25	1195.0
79.26	1147.0
79.27	1145.0
79.28	1060.0
79.29	998.0
79.3	960.0
79.31	982.0
79.32	1015.0
79.33	990.0
79.34	970.0
79.35	971.0
79.36	994.0
79.37	1016.0
79.38	1019.0
79.39	1030.0
79.4	1106.0
79.41	1119.0
79.42	1104.0
79.43	1097.0
79.44	1133.0
79.45	1092.0
79.46	1040.0
79.47	1040.0
79.48	990.0
79.49	981.0
79.5	915.0
79.51	873.0
79.52	884.0
79.53	861.0
79.54	826.0
79.55	798.0
79.56	795.0
79.57	778.0
79.58	753.0
79.59	748.0
79.6	759.0
79.61	765.0
79.62	786.0
79.63	727.0
79.64	727.0
79.65	726.0
79.66	745.0
79.67	740.0
79.68	680.0
79.69	687.0
79.7	706.0
79.71	731.0
79.72	726.0
79.73	725.0
79.74	697.0
79.75	666.0
79.76	653.0
79.77	681.0
79.78	687.0
79.79	685.0
79.8	681.0
79.81	671.0
79.82	694.0
79.83	691.0
79.84	670.0
79.85	650.0
79.86	641.0
79.87	627.0
79.88	623.0
79.89	661.0
79.9	642.0
79.91	632.0
79.92	645.0
79.93	652.0
79.94	634.0
79.95	642.0
79.96	701.0
79.97	691.0
79.98	651.0
79.99	635.0
80.0	629.0
80.01	660.0
80.02	675.0
80.03	661.0
80.04	655.0
80.05	659.0
80.06	650.0
80.07	631.0
80.08	671.0
80.09	692.0
80.1	652.0
80.11	636.0
80.12	624.0
80.13	620.0
80.14	661.0
80.15	673.0
80.16	633.0
80.17	611.0
80.18	623.0
80.19	639.0
80.2	628.0
80.21	621.0
80.22	630.0
80.23	652.0
80.24	656.0
80.25	651.0
80.26	622.0
80.27	632.0
80.28	625.0
80.29	605.0
80.3	632.0
80.31	668.0
80.32	634.0
80.33	638.0
80.34	664.0
80.35	636.0
80.36	614.0
80.37	608.0
80.38	612.0
80.39	617.0
80.4	636.0
80.41	644.0
80.42	653.0
80.43	650.0
80.44	605.0
80.45	623.0
80.46	625.0
80.47	609.0
80.48	619.0
80.49	634.0
80.5	614.0
80.51	646.0
80.52	619.0
80.53	605.0
80.54	659.0
80.55	657.0
80.56	652.0
80.57	652.0
80.58	645.0
80.59	624.0
80.6	613.0
80.61	657.0
80.62	648.0
80.63	616.0
80.64	626.0
80.65	623.0
80.66	627.0
80.67	663.0
80.68	651.0
80.69	605.0
80.7	638.0
80.71	633.0
80.72	644.0
80.73	651.0
80.74	663.0
80.75	644.0
80.76	642.0
80.77	645.0
80.78	632.0
80.79	631.0
80.8	641.0
80.81	643.0
80.82	632.0
80.83	620.0
80.84	632.0
80.85	623.0
80.86	609.0
80.87	595.0
80.88	634.0
80.89	644.0
80.9	619.0
80.91	591.0
80.92	641.0
80.93	609.0
80.94	627.0
80.95	607.0
80.96	609.0
80.97	635.0
80.98	649.0
80.99	638.0
81.0	633.0
81.01	635.0
81.02	619.0
81.03	651.0
81.04	651.0
81.05	646.0
81.06	652.0
81.07	642.0
81.08	608.0
81.09	611.0
81.1	636.0
81.11	621.0
81.12	620.0
81.13	623.0
81.14	627.0
81.15	651.0
81.16	659.0
81.17	637.0
81.18	646.0
81.19	638.0
81.2	644.0
81.21	618.0
81.22	612.0
81.23	613.0
81.24	607.0
81.25	636.0
81.26	617.0
81.27	638.0
81.28	664.0
81.29	631.0
81.3	609.0
81.31	632.0
81.32	624.0
81.33	640.0
81.34	634.0
81.35	640.0
81.36	633.0
81.37	622.0
81.38	630.0
81.39	604.0
81.4	608.0
81.41	654.0
81.42	647.0
81.43	632.0
81.44	614.0
81.45	633.0
81.46	645.0
81.47	630.0
81.48	629.0
81.49	638.0
81.5	626.0
81.51	619.0
81.52	630.0
81.53	629.0
81.54	628.0
81.55	653.0
81.56	672.0
81.57	708.0
81.58	649.0
81.59	608.0
81.6	618.0
81.61	615.0
81.62	621.0
81.63	621.0
81.64	634.0
81.65	658.0
81.66	649.0
81.67	653.0
81.68	662.0
81.69	661.0
81.7	672.0
81.71	651.0
81.72	661.0
81.73	670.0
81.74	659.0
81.75	615.0
81.76	620.0
81.77	669.0
81.78	667.0
81.79	662.0
81.8	672.0
81.81	652.0
81.82	653.0
81.83	629.0
81.84	609.0
81.85	647.0
81.86	683.0
81.87	659.0
81.88	625.0
81.89	642.0
81.9	664.0
81.91	671.0
81.92	672.0
81.93	673.0
81.94	709.0
81.95	689.0
81.96	689.0
81.97	659.0
81.98	659.0
81.99	716.0
82.0	721.0
82.01	708.0
82.02	724.0
82.03	720.0
82.04	750.0
82.05	795.0
82.06	803.0
82.07	813.0
82.08	859.0
82.09	934.0
82.1	977.0
82.11	984.0
82.12	1027.0
82.13	1076.0
82.14	1079.0
82.15	1091.0
82.16	1062.0
82.17	1049.0
82.18	1036.0
82.19	987.0
82.2	908.0
82.21	894.0
82.22	851.0
82.23	844.0
82.24	820.0
82.25	801.0
82.26	838.0
82.27	861.0
82.28	880.0
82.29	868.0
82.3	834.0
82.31	828.0
82.32	821.0
82.33	821.0
82.34	855.0
82.35	843.0
82.36	850.0
82.37	907.0
82.38	923.0
82.39	946.0
82.4	914.0
82.41	913.0
82.42	911.0
82.43	867.0
82.44	845.0
82.45	858.0
82.46	840.0
82.47	788.0
82.48	807.0
82.49	788.0
82.5	727.0
82.51	734.0
82.52	738.0
82.53	727.0
82.54	722.0
82.55	706.0
82.56	706.0
82.57	703.0
82.58	712.0
82.59	681.0
82.6	699.0
82.61	686.0
82.62	671.0
82.63	704.0
82.64	670.0
82.65	671.0
82.66	688.0
82.67	665.0
82.68	658.0
82.69	664.0
82.7	663.0
82.71	677.0
82.72	676.0
82.73	655.0
82.74	644.0
82.75	661.0
82.76	666.0
82.77	654.0
82.78	671.0
82.79	656.0
82.8	639.0
82.81	629.0
82.82	634.0
82.83	647.0
82.84	644.0
82.85	631.0
82.86	652.0
82.87	657.0
82.88	649.0
82.89	645.0
82.9	668.0
82.91	653.0
82.92	632.0
82.93	618.0
82.94	616.0
82.95	628.0
82.96	623.0
82.97	637.0
82.98	625.0
82.99	599.0
83.0	628.0
83.01	652.0
83.02	640.0
83.03	623.0
83.04	665.0
83.05	646.0
83.06	646.0
83.07	654.0
83.08	654.0
83.09	664.0
83.1	683.0
83.11	651.0
83.12	640.0
83.13	643.0
83.14	626.0
83.15	627.0
83.16	612.0
83.17	624.0
83.18	625.0
83.19	621.0
83.2	641.0
83.21	652.0
83.22	660.0
83.23	647.0
83.24	615.0
83.25	601.0
83.26	596.0
83.27	619.0
83.28	614.0
83.29	617.0
83.3	622.0
83.31	632.0
83.32	637.0
83.33	641.0
83.34	623.0
83.35	617.0
83.36	635.0
83.37	639.0
83.38	641.0
83.39	644.0
83.4	638.0
83.41	633.0
83.42	588.0
83.43	606.0
83.44	614.0
83.45	618.0
83.46	648.0
83.47	661.0
83.48	654.0
83.49	602.0
83.5	624.0
83.51	671.0
83.52	665.0
83.53	627.0
83.54	619.0
83.55	622.0
83.56	614.0
83.57	643.0
83.58	657.0
83.59	642.0
83.6	627.0
83.61	633.0
83.62	642.0
83.63	667.0
83.64	645.0
83.65	621.0
83.66	648.0
83.67	650.0
83.68	630.0
83.69	631.0
83.7	624.0
83.71	628.0
83.72	637.0
83.73	630.0
83.74	635.0
83.75	642.0
83.76	635.0
83.77	636.0
83.78	635.0
83.79	629.0
83.8	625.0
83.81	620.0
83.82	621.0
83.83	616.0
83.84	620.0
83.85	641.0
83.86	631.0
83.87	627.0
83.88	640.0
83.89	629.0
83.9	629.0
83.91	637.0
83.92	632.0
83.93	623.0
83.94	627.0
83.95	621.0
83.96	636.0
83.97	651.0
83.98	642.0
83.99	671.0
84.0	669.0
84.01	646.0
84.02	602.0
84.03	589.0
84.04	597.0
84.05	616.0
84.06	627.0
84.07	623.0
84.08	639.0
84.09	611.0
84.1	616.0
84.11	632.0
84.12	629.0
84.13	629.0
84.14	662.0
84.15	644.0
84.16	624.0
84.17	600.0
84.18	623.0
84.19	631.0
84.2	620.0
84.21	614.0
84.22	601.0
84.23	611.0
84.24	613.0
84.25	613.0
84.26	628.0
84.27	633.0
84.28	631.0
84.29	643.0
84.3	650.0
84.31	656.0
84.32	647.0
84.33	614.0
84.34	607.0
84.35	634.0
84.36	632.0
84.37	612.0
84.38	604.0
84.39	634.0
84.4	629.0
84.41	653.0
84.42	650.0
84.43	646.0
84.44	645.0
84.45	629.0
84.46	633.0
84.47	647.0
84.48	650.0
84.49	636.0
84.5	638.0
84.51	635.0
84.52	644.0
84.53	639.0
84.54	648.0
84.55	622.0
84.56	650.0
84.57	653.0
84.58	638.0
84.59	628.0
84.6	632.0
84.61	612.0
84.62	596.0
84.63	612.0
84.64	628.0
84.65	640.0
84.66	626.0
84.67	629.0
84.68	631.0
84.69	627.0
84.7	628.0
84.71	617.0
84.72	612.0
84.73	631.0
84.74	614.0
84.75	637.0
84.76	653.0
84.77	648.0
84.78	636.0
84.79	653.0
84.8	635.0
84.81	606.0
84.82	610.0
84.83	604.0
84.84	600.0
84.85	613.0
84.86	630.0
84.87	615.0
84.88	619.0
84.89	609.0
84.9	609.0
84.91	618.0
84.92	605.0
84.93	629.0
84.94	610.0
84.95	598.0
84.96	627.0
84.97	636.0
84.98	631.0
84.99	613.0
85.0	618.0
85.01	622.0
85.02	631.0
85.03	624.0
85.04	634.0
85.05	667.0
85.06	663.0
85.07	645.0
85.08	617.0
85.09	608.0
85.1	616.0
85.11	625.0
85.12	644.0
85.13	638.0
85.14	628.0
85.15	608.0
85.16	625.0
85.17	610.0
85.18	615.0
85.19	624.0
85.2	597.0
85.21	582.0
85.22	610.0
85.23	611.0
85.24	585.0
85.25	612.0
85.26	643.0
85.27	668.0
85.28	648.0
85.29	632.0
85.3	636.0
85.31	618.0
85.32	611.0
85.33	617.0
85.34	609.0
85.35	621.0
85.36	637.0
85.37	629.0
85.38	643.0
85.39	638.0
85.4	604.0
85.41	607.0
85.42	619.0
85.43	608.0
85.44	602.0
85.45	587.0
85.46	604.0
85.47	623.0
85.48	633.0
85.49	632.0
85.5	635.0
85.51	619.0
85.52	625.0
85.53	621.0
85.54	625.0
85.55	586.0
85.56	602.0
85.57	614.0
85.58	605.0
85.59	607.0
85.6	597.0
85.61	607.0
85.62	613.0
85.63	622.0
85.64	647.0
85.65	655.0
85.66	627.0
85.67	603.0
85.68	589.0
85.69	613.0
85.7	630.0
85.71	625.0
85.72	628.0
85.73	613.0
85.74	613.0
85.75	627.0
85.76	627.0
85.77	625.0
85.78	618.0
85.79	611.0
85.8	620.0
85.81	617.0
85.82	636.0
85.83	653.0
85.84	640.0
85.85	621.0
85.86	617.0
85.87	623.0
85.88	634.0
85.89	624.0
85.9	636.0
85.91	643.0
85.92	644.0
85.93	645.0
85.94	619.0
85.95	627.0
85.96	631.0
85.97	617.0
85.98	618.0
85.99	614.0
86.0	609.0
86.01	622.0
86.02	612.0
86.03	616.0
86.04	634.0
86.05	617.0
86.06	635.0
86.07	632.0
86.08	608.0
86.09	620.0
86.1	619.0
86.11	603.0
86.12	636.0
86.13	649.0
86.14	647.0
86.15	681.0
86.16	710.0
86.17	649.0
86.18	626.0
86.19	619.0
86.2	637.0
86.21	646.0
86.22	630.0
86.23	591.0
86.24	598.0
86.25	609.0
86.26	622.0
86.27	623.0
86.28	634.0
86.29	637.0
86.3	622.0
86.31	621.0
86.32	619.0
86.33	621.0
86.34	633.0
86.35	633.0
86.36	627.0
86.37	622.0
86.38	610.0
86.39	618.0
86.4	646.0
86.41	656.0
86.42	646.0
86.43	619.0
86.44	598.0
86.45	601.0
86.46	609.0
86.47	642.0
86.48	632.0
86.49	619.0
86.5	652.0
86.51	655.0
86.52	641.0
86.53	627.0
86.54	634.0
86.55	625.0
86.56	615.0
86.57	618.0
86.58	640.0
86.59	635.0
86.6	639.0
86.61	655.0
86.62	658.0
86.63	677.0
86.64	696.0
86.65	627.0
86.66	625.0
86.67	636.0
86.68	630.0
86.69	626.0
86.7	647.0
86.71	655.0
86.72	652.0
86.73	655.0
86.74	645.0
86.75	655.0
86.76	645.0
86.77	642.0
86.78	617.0
86.79	653.0
86.8	647.0
86.81	627.0
86.82	642.0
86.83	621.0
86.84	619.0
86.85	612.0
86.86	629.0
86.87	623.0
86.88	639.0
86.89	670.0
86.9	665.0
86.91	651.0
86.92	660.0
86.93	656.0
86.94	671.0
86.95	658.0
86.96	659.0
86.97	677.0
86.98	718.0
86.99	733.0
87.0	722.0
87.01	703.0
87.02	697.0
87.03	691.0
87.04	738.0
87.05	738.0
87.06	723.0
87.07	703.0
87.08	704.0
87.09	679.0
87.1	660.0
87.11	671.0
87.12	673.0
87.13	665.0
87.14	635.0
87.15	626.0
87.16	658.0
87.17	669.0
87.18	673.0
87.19	687.0
87.2	695.0
87.21	697.0
87.22	702.0
87.23	702.0
87.24	688.0
87.25	683.0
87.26	691.0
87.27	662.0
87.28	660.0
87.29	659.0
87.3	690.0
87.31	668.0
87.32	679.0
87.33	675.0
87.34	644.0
87.35	631.0
87.36	636.0
87.37	656.0
87.38	663.0
87.39	641.0
87.4	628.0
87.41	630.0
87.42	620.0
87.43	612.0
87.44	633.0
87.45	611.0
87.46	622.0
87.47	645.0
87.48	654.0
87.49	617.0
87.5	609.0
87.51	639.0
87.52	647.0
87.53	627.0
87.54	643.0
87.55	632.0
87.56	622.0
87.57	617.0
87.58	617.0
87.59	635.0
87.6	655.0
87.61	649.0
87.62	647.0
87.63	642.0
87.64	617.0
87.65	606.0
87.66	627.0
87.67	638.0
87.68	621.0
87.69	637.0
87.7	627.0
87.71	610.0
87.72	590.0
87.73	598.0
87.74	617.0
87.75	617.0
87.76	600.0
87.77	615.0
87.78	632.0
87.79	636.0
87.8	627.0
87.81	628.0
87.82	633.0
87.83	632.0
87.84	644.0
87.85	641.0
87.86	633.0
87.87	618.0
87.88	614.0
87.89	618.0
87.9	618.0
87.91	611.0
87.92	626.0
87.93	632.0
87.94	615.0
87.95	589.0
87.96	598.0
87.97	623.0
87.98	643.0
87.99	646.0
88.0	641.0
88.01	633.0
88.02	615.0
88.03	603.0
88.04	597.0
88.05	598.0
88.06	613.0
88.07	626.0
88.08	636.0
88.09	627.0
88.1	612.0
88.11	608.0
88.12	616.0
88.13	633.0
88.14	636.0
88.15	654.0
88.16	627.0
88.17	612.0
88.18	650.0
88.19	646.0
88.2	622.0
88.21	604.0
88.22	601.0
88.23	610.0
88.24	629.0
88.25	629.0
88.26	608.0
88.27	596.0
88.28	621.0
88.29	645.0
88.3	637.0
88.31	639.0
88.32	644.0
88.33	637.0
88.34	649.0
88.35	619.0
88.36	611.0
88.37	627.0
88.38	623.0
88.39	605.0
88.4	610.0
88.41	621.0
88.42	622.0
88.43	623.0
88.44	619.0
88.45	624.0
88.46	641.0
88.47	649.0
88.48	644.0
88.49	620.0
88.5	612.0
88.51	621.0
88.52	646.0
88.53	629.0
88.54	633.0
88.55	641.0
88.56	640.0
88.57	644.0
88.58	636.0
88.59	622.0
88.6	603.0
88.61	608.0
88.62	628.0
88.63	616.0
88.64	597.0
88.65	588.0
88.66	599.0
88.67	604.0
88.68	598.0
88.69	596.0
88.7	625.0
88.71	630.0
88.72	623.0
88.73	629.0
88.74	640.0
88.75	627.0
88.76	627.0
88.77	639.0
88.78	641.0
88.79	660.0
88.8	661.0
88.81	649.0
88.82	622.0
88.83	615.0
88.84	636.0
88.85	626.0
88.86	626.0
88.87	638.0
88.88	631.0
88.89	616.0
88.9	635.0
88.91	648.0
88.92	646.0
88.93	645.0
88.94	628.0
88.95	622.0
88.96	648.0
88.97	673.0
88.98	659.0
88.99	637.0
89.0	644.0
89.01	639.0
89.02	629.0
89.03	616.0
89.04	606.0
89.05	615.0
89.06	638.0
89.07	646.0
89.08	644.0
89.09	644.0
89.1	630.0
89.11	608.0
89.12	623.0
89.13	654.0
89.14	670.0
89.15	660.0
89.16	653.0
89.17	638.0
89.18	647.0
89.19	641.0
89.2	615.0
89.21	631.0
89.22	655.0
89.23	635.0
89.24	629.0
89.25	637.0
89.26	640.0
89.27	638.0
89.28	634.0
89.29	640.0
89.3	634.0
89.31	614.0
89.32	627.0
89.33	634.0
89.34	628.0
89.35	627.0
89.36	636.0
89.37	655.0
89.38	650.0
89.39	641.0
89.4	645.0
89.41	654.0
89.42	659.0
89.43	682.0
89.44	667.0
89.45	660.0
89.46	662.0
89.47	647.0
89.48	640.0
89.49	637.0
89.5	661.0
89.51	689.0
89.52	673.0
89.53	669.0
89.54	669.0
89.55	667.0
89.56	686.0
89.57	691.0
89.58	652.0
89.59	675.0
89.6	698.0
89.61	688.0
89.62	682.0
89.63	676.0
89.64	686.0
89.65	699.0
89.66	698.0
89.67	684.0
89.68	679.0
89.69	703.0
89.7	718.0
89.71	715.0
89.72	707.0
89.73	717.0
89.74	723.0
89.75	729.0
89.76	755.0
89.77	756.0
89.78	771.0
89.79	799.0
89.8	844.0
89.81	882.0
89.82	884.0
89.83	913.0
89.84	1011.0
89.85	1062.0
89.86	1125.0
89.87	1236.0
89.88	1335.0
89.89	1416.0
89.9	1498.0
89.91	1556.0
89.92	1580.0
89.93	1539.0
89.94	1500.0
89.95	1473.0
89.96	1418.0
89.97	1359.0
89.98	1295.0
89.99	1236.0
90.0	1199.0
90.01	1146.0
90.02	1125.0
90.03	1110.0
90.04	1072.0
90.05	1053.0
90.06	1044.0
90.07	1021.0
90.08	988.0
90.09	983.0
90.1	1000.0
90.11	1019.0
90.12	1030.0
90.13	1046.0
90.14	1037.0
90.15	1046.0
90.16	1095.0
90.17	1110.0
90.18	1117.0
90.19	1137.0
90.2	1187.0
90.21	1210.0
90.22	1180.0
90.23	1163.0
90.24	1162.0
90.25	1116.0
90.26	1045.0
90.27	1000.0
90.28	971.0
90.29	931.0
90.3	907.0
90.31	894.0
90.32	867.0
90.33	848.0
90.34	839.0
90.35	824.0
90.36	812.0
90.37	803.0
90.38	808.0
90.39	803.0
90.4	791.0
90.41	772.0
90.42	732.0
90.43	726.0
90.44	736.0
90.45	730.0
90.46	715.0
90.47	728.0
90.48	738.0
90.49	711.0
90.5	699.0
90.51	716.0
90.52	726.0
90.53	728.0
90.54	719.0
90.55	687.0
90.56	653.0
90.57	651.0
90.58	674.0
90.59	679.0
90.6	672.0
90.61	663.0
90.62	655.0
90.63	646.0
90.64	649.0
90.65	670.0
90.66	661.0
90.67	633.0
90.68	625.0
90.69	631.0
90.7	647.0
90.71	671.0
90.72	666.0
90.73	654.0
90.74	665.0
90.75	657.0
90.76	644.0
90.77	641.0
90.78	626.0
90.79	609.0
90.8	613.0
90.81	620.0
90.82	614.0
90.83	637.0
90.84	664.0
90.85	663.0
90.86	654.0
90.87	645.0
90.88	629.0
90.89	616.0
90.9	599.0
90.91	597.0
90.92	630.0
90.93	653.0
90.94	648.0
90.95	616.0
90.96	597.0
90.97	621.0
90.98	637.0
90.99	637.0
91.0	660.0
91.01	677.0
91.02	653.0
91.03	638.0
91.04	648.0
91.05	635.0
91.06	635.0
91.07	645.0
91.08	632.0
91.09	633.0
91.1	660.0
91.11	657.0
91.12	628.0
91.13	619.0
91.14	627.0
91.15	628.0
91.16	619.0
91.17	637.0
91.18	658.0
91.19	657.0
91.2	644.0
91.21	625.0
91.22	607.0
91.23	606.0
91.24	637.0
91.25	643.0
91.26	618.0
91.27	617.0
91.28	632.0
91.29	657.0
91.3	660.0
91.31	635.0
91.32	624.0
91.33	640.0
91.34	652.0
91.35	641.0
91.36	625.0
91.37	630.0
91.38	636.0
91.39	619.0
91.4	615.0
91.41	616.0
91.42	621.0
91.43	627.0
91.44	611.0
91.45	594.0
91.46	591.0
91.47	600.0
91.48	603.0
91.49	605.0
91.5	623.0
91.51	625.0
91.52	620.0
91.53	634.0
91.54	628.0
91.55	616.0
91.56	608.0
91.57	617.0
91.58	633.0
91.59	619.0
91.6	630.0
91.61	648.0
91.62	647.0
91.63	647.0
91.64	626.0
91.65	627.0
91.66	643.0
91.67	632.0
91.68	623.0
91.69	610.0
91.7	596.0
91.71	596.0
91.72	613.0
91.73	640.0
91.74	661.0
91.75	652.0
91.76	635.0
91.77	627.0
91.78	615.0
91.79	611.0
91.8	613.0
91.81	609.0
91.82	618.0
91.83	637.0
91.84	624.0
91.85	612.0
91.86	624.0
91.87	616.0
91.88	604.0
91.89	617.0
91.9	617.0
91.91	619.0
91.92	629.0
91.93	623.0
91.94	621.0
91.95	629.0
91.96	621.0
91.97	616.0
91.98	617.0
91.99	622.0
92.0	625.0
92.01	622.0
92.02	616.0
92.03	613.0
92.04	607.0
92.05	610.0
92.06	618.0
92.07	625.0
92.08	622.0
92.09	609.0
92.1	617.0
92.11	632.0
92.12	642.0
92.13	631.0
92.14	625.0
92.15	642.0
92.16	638.0
92.17	608.0
92.18	598.0
92.19	600.0
92.2	621.0
92.21	637.0
92.22	619.0
92.23	610.0
92.24	630.0
92.25	638.0
92.26	633.0
92.27	613.0
92.28	611.0
92.29	630.0
92.3	651.0
92.31	637.0
92.32	597.0
92.33	602.0
92.34	624.0
92.35	618.0
92.36	631.0
92.37	648.0
92.38	642.0
92.39	640.0
92.4	625.0
92.41	611.0
92.42	629.0
92.43	638.0
92.44	647.0
92.45	659.0
92.46	629.0
92.47	598.0
92.48	604.0
92.49	630.0
92.5	641.0
92.51	630.0
92.52	599.0
92.53	590.0
92.54	620.0
92.55	624.0
92.56	626.0
92.57	636.0
92.58	633.0
92.59	631.0
92.6	621.0
92.61	618.0
92.62	641.0
92.63	633.0
92.64	606.0
92.65	624.0
92.66	631.0
92.67	632.0
92.68	629.0
92.69	629.0
92.7	626.0
92.71	629.0
92.72	630.0
92.73	619.0
92.74	605.0
92.75	603.0
92.76	611.0
92.77	628.0
92.78	636.0
92.79	630.0
92.8	612.0
92.81	605.0
92.82	614.0
92.83	625.0
92.84	629.0
92.85	606.0
92.86	602.0
92.87	623.0
92.88	626.0
92.89	624.0
92.9	645.0
92.91	643.0
92.92	623.0
92.93	614.0
92.94	630.0
92.95	630.0
92.96	602.0
92.97	607.0
92.98	619.0
92.99	628.0
93.0	617.0
93.01	627.0
93.02	628.0
93.03	627.0
93.04	642.0
93.05	645.0
93.06	641.0
93.07	627.0
93.08	633.0
93.09	639.0
93.1	639.0
93.11	631.0
93.12	632.0
93.13	637.0
93.14	634.0
93.15	630.0
93.16	616.0
93.17	604.0
93.18	607.0
93.19	599.0
93.2	605.0
93.21	616.0
93.22	631.0
93.23	639.0
93.24	624.0
93.25	623.0
93.26	646.0
93.27	634.0
93.28	628.0
93.29	619.0
93.3	623.0
93.31	607.0
93.32	591.0
93.33	596.0
93.34	619.0
93.35	633.0
93.36	645.0
93.37	655.0
93.38	631.0
93.39	613.0
93.4	609.0
93.41	615.0
93.42	620.0
93.43	603.0
93.44	613.0
93.45	621.0
93.46	619.0
93.47	614.0
93.48	622.0
93.49	626.0
93.5	619.0
93.51	636.0
93.52	645.0
93.53	634.0
93.54	618.0
93.55	600.0
93.56	607.0
93.57	633.0
93.58	646.0
93.59	640.0
93.6	627.0
93.61	621.0
93.62	607.0
93.63	610.0
93.64	633.0
93.65	642.0
93.66	639.0
93.67	643.0
93.68	635.0
93.69	603.0
93.7	599.0
93.71	605.0
93.72	620.0
93.73	614.0
93.74	609.0
93.75	579.0
93.76	571.0
93.77	599.0
93.78	623.0
93.79	650.0
93.8	652.0
93.81	615.0
93.82	584.0
93.83	573.0
93.84	587.0
93.85	620.0
93.86	637.0
93.87	649.0
93.88	615.0
93.89	613.0
93.9	623.0
93.91	626.0
93.92	632.0
93.93	618.0
93.94	602.0
93.95	598.0
93.96	610.0
93.97	626.0
93.98	630.0
93.99	615.0
94.0	609.0
94.01	614.0
94.02	621.0
94.03	626.0
94.04	611.0
94.05	613.0
94.06	619.0
94.07	640.0
94.08	640.0
94.09	656.0
94.1	640.0
94.11	634.0
94.12	650.0
94.13	649.0
94.14	638.0
94.15	632.0
94.16	623.0
94.17	630.0
94.18	629.0
94.19	623.0
94.2	626.0
94.21	655.0
94.22	664.0
94.23	657.0
94.24	652.0
94.25	663.0
94.26	669.0
94.27	669.0
94.28	644.0
94.29	630.0
94.3	610.0
94.31	606.0
94.32	616.0
94.33	640.0
94.34	648.0
94.35	673.0
94.36	681.0
94.37	690.0
94.38	664.0
94.39	636.0
94.4	633.0
94.41	638.0
94.42	655.0
94.43	646.0
94.44	637.0
94.45	650.0
94.46	642.0
94.47	644.0
94.48	647.0
94.49	666.0
94.5	679.0
94.51	645.0
94.52	634.0
94.53	655.0
94.54	653.0
94.55	670.0
94.56	671.0
94.57	685.0
94.58	688.0
94.59	674.0
94.6	673.0
94.61	659.0
94.62	663.0
94.63	687.0
94.64	701.0
94.65	707.0
94.66	729.0
94.67	751.0
94.68	788.0
94.69	820.0
94.7	840.0
94.71	867.0
94.72	909.0
94.73	925.0
94.74	964.0
94.75	999.0
94.76	1010.0
94.77	1032.0
94.78	1052.0
94.79	1057.0
94.8	1034.0
94.81	1022.0
94.82	1028.0
94.83	998.0
94.84	927.0
94.85	911.0
94.86	920.0
94.87	882.0
94.88	857.0
94.89	831.0
94.9	835.0
94.91	850.0
94.92	829.0
94.93	807.0
94.94	809.0
94.95	816.0
94.96	823.0
94.97	820.0
94.98	828.0
94.99	821.0
95.0	827.0
95.01	829.0
95.02	823.0
95.03	839.0
95.04	849.0
95.05	868.0
95.06	904.0
95.07	884.0
95.08	867.0
95.09	834.0
95.1	866.0
95.11	864.0
95.12	847.0
95.13	828.0
95.14	816.0
95.15	810.0
95.16	797.0
95.17	769.0
95.18	751.0
95.19	763.0
95.2	738.0
95.21	743.0
95.22	757.0
95.23	734.0
95.24	698.0
95.25	684.0
95.26	683.0
95.27	666.0
95.28	667.0
95.29	667.0
95.3	693.0
95.31	698.0
95.32	679.0
95.33	663.0
95.34	667.0
95.35	676.0
95.36	666.0
95.37	671.0
95.38	680.0
95.39	686.0
95.4	658.0
95.41	657.0
95.42	668.0
95.43	650.0
95.44	642.0
95.45	640.0
95.46	638.0
95.47	653.0
95.48	634.0
95.49	626.0
95.5	633.0
95.51	640.0
95.52	637.0
95.53	657.0
95.54	656.0
95.55	613.0
95.56	613.0
95.57	630.0
95.58	642.0
95.59	612.0
95.6	608.0
95.61	610.0
95.62	620.0
95.63	631.0
95.64	634.0
95.65	626.0
95.66	614.0
95.67	618.0
95.68	619.0
95.69	633.0
95.7	637.0
95.71	619.0
95.72	609.0
95.73	612.0
95.74	629.0
95.75	634.0
95.76	653.0
95.77	632.0
95.78	605.0
95.79	614.0
95.8	607.0
95.81	606.0
95.82	592.0
95.83	614.0
95.84	607.0
95.85	598.0
95.86	611.0
95.87	616.0
95.88	607.0
95.89	600.0
95.9	611.0
95.91	611.0
95.92	609.0
95.93	610.0
95.94	608.0
95.95	629.0
95.96	643.0
95.97	590.0
95.98	588.0
95.99	639.0
96.0	638.0
96.01	626.0
96.02	620.0
96.03	615.0
96.04	612.0
96.05	598.0
96.06	598.0
96.07	609.0
96.08	609.0
96.09	617.0
96.1	631.0
96.11	624.0
96.12	626.0
96.13	647.0
96.14	663.0
96.15	629.0
96.16	601.0
96.17	585.0
96.18	582.0
96.19	594.0
96.2	599.0
96.21	622.0
96.22	629.0
96.23	622.0
96.24	619.0
96.25	629.0
96.26	628.0
96.27	622.0
96.28	613.0
96.29	626.0
96.3	641.0
96.31	609.0
96.32	616.0
96.33	619.0
96.34	610.0
96.35	633.0
96.36	631.0
96.37	611.0
96.38	591.0
96.39	602.0
96.4	617.0
96.41	633.0
96.42	633.0
96.43	635.0
96.44	621.0
96.45	625.0
96.46	613.0
96.47	604.0
96.48	632.0
96.49	637.0
96.5	629.0
96.51	621.0
96.52	616.0
96.53	620.0
96.54	615.0
96.55	619.0
96.56	626.0
96.57	631.0
96.58	615.0
96.59	591.0
96.6	613.0
96.61	617.0
96.62	628.0
96.63	607.0
96.64	637.0
96.65	605.0
96.66	628.0
96.67	639.0
96.68	637.0
96.69	622.0
96.7	632.0
96.71	615.0
96.72	618.0
96.73	639.0
96.74	638.0
96.75	629.0
96.76	605.0
96.77	582.0
96.78	583.0
96.79	602.0
96.8	628.0
96.81	623.0
96.82	618.0
96.83	611.0
96.84	618.0
96.85	641.0
96.86	601.0
96.87	602.0
96.88	640.0
96.89	636.0
96.9	614.0
96.91	635.0
96.92	648.0
96.93	626.0
96.94	601.0
96.95	611.0
96.96	612.0
96.97	623.0
96.98	613.0
96.99	621.0
97.0	626.0
97.01	633.0
97.02	638.0
97.03	631.0
97.04	608.0
97.05	597.0
97.06	616.0
97.07	654.0
97.08	617.0
97.09	607.0
97.1	629.0
97.11	635.0
97.12	612.0
97.13	597.0
97.14	605.0
97.15	625.0
97.16	626.0
97.17	627.0
97.18	590.0
97.19	611.0
97.2	616.0
97.21	625.0
97.22	616.0
97.23	588.0
97.24	594.0
97.25	600.0
97.26	620.0
97.27	618.0
97.28	590.0
97.29	587.0
97.3	614.0
97.31	639.0
97.32	632.0
97.33	607.0
97.34	603.0
97.35	590.0
97.36	592.0
97.37	597.0
97.38	594.0
97.39	629.0
97.4	635.0
97.41	603.0
97.42	631.0
97.43	602.0
97.44	564.0
97.45	604.0
97.46	606.0
97.47	601.0
97.48	594.0
97.49	605.0
97.5	605.0
97.51	597.0
97.52	600.0
97.53	604.0
97.54	609.0
97.55	583.0
97.56	571.0
97.57	600.0
97.58	602.0
97.59	597.0
97.6	626.0
97.61	635.0
97.62	627.0
97.63	605.0
97.64	612.0
97.65	616.0
97.66	623.0
97.67	637.0
97.68	637.0
97.69	622.0
97.7	612.0
97.71	612.0
97.72	596.0
97.73	600.0
97.74	609.0
97.75	607.0
97.76	605.0
97.77	633.0
97.78	649.0
97.79	637.0
97.8	607.0
97.81	620.0
97.82	620.0
97.83	642.0
97.84	629.0
97.85	616.0
97.86	610.0
97.87	593.0
97.88	634.0
97.89	607.0
97.9	600.0
97.91	652.0
97.92	628.0
97.93	605.0
97.94	584.0
97.95	612.0
97.96	633.0
97.97	618.0
97.98	617.0
97.99	649.0
98.0	655.0
98.01	659.0
98.02	647.0
98.03	626.0
98.04	627.0
98.05	600.0
98.06	598.0
98.07	603.0
98.08	610.0
98.09	618.0
98.1	609.0
98.11	629.0
98.12	634.0
98.13	665.0
98.14	643.0
98.15	618.0
98.16	624.0
98.17	621.0
98.18	608.0
98.19	605.0
98.2	604.0
98.21	609.0
98.22	598.0
98.23	642.0
98.24	630.0
98.25	596.0
98.26	610.0
98.27	619.0
98.28	612.0
98.29	589.0
98.3	584.0
98.31	600.0
98.32	588.0
98.33	606.0
98.34	607.0
98.35	582.0
98.36	609.0
98.37	623.0
98.38	623.0
98.39	631.0
98.4	625.0
98.41	636.0
98.42	641.0
98.43	615.0
98.44	603.0
98.45	605.0
98.46	649.0
98.47	613.0
98.48	589.0
98.49	601.0
98.5	583.0
98.51	590.0
98.52	616.0
98.53	601.0
98.54	578.0
98.55	607.0
98.56	618.0
98.57	590.0
98.58	615.0
98.59	612.0
98.6	597.0
98.61	595.0
98.62	628.0
98.63	613.0
98.64	596.0
98.65	604.0
98.66	613.0
98.67	611.0
98.68	590.0
98.69	612.0
98.7	610.0
98.71	592.0
98.72	642.0
98.73	655.0
98.74	629.0
98.75	605.0
98.76	633.0
98.77	624.0
98.78	650.0
98.79	650.0
98.8	636.0
98.81	608.0
98.82	591.0
98.83	619.0
98.84	611.0
98.85	621.0
98.86	632.0
98.87	599.0
98.88	595.0
98.89	610.0
98.9	610.0
98.91	667.0
98.92	660.0
98.93	609.0
98.94	615.0
98.95	621.0
98.96	623.0
98.97	619.0
98.98	585.0
98.99	569.0
99.0	607.0
99.01	610.0
99.02	610.0
99.03	621.0
99.04	611.0
99.05	620.0
99.06	604.0
99.07	595.0
99.08	618.0
99.09	614.0
99.1	634.0
99.11	613.0
99.12	640.0
99.13	595.0
99.14	615.0
99.15	605.0
99.16	593.0
99.17	612.0
99.18	619.0
99.19	625.0
99.2	630.0
99.21	613.0
99.22	599.0
99.23	606.0
99.24	617.0
99.25	630.0
99.26	608.0
99.27	567.0
99.28	601.0
99.29	638.0
99.3	642.0
99.31	621.0
99.32	625.0
99.33	629.0
99.34	595.0
99.35	626.0
99.36	602.0
99.37	596.0
99.38	595.0
99.39	614.0
99.4	592.0
99.41	596.0
99.42	582.0
99.43	608.0
99.44	609.0
99.45	605.0
99.46	611.0
99.47	611.0
99.48	610.0
99.49	620.0
99.5	617.0
99.51	639.0
99.52	657.0
99.53	626.0
99.54	604.0
99.55	610.0
99.56	648.0
99.57	627.0
99.58	608.0
99.59	599.0
99.6	605.0
99.61	632.0
99.62	628.0
99.63	605.0
99.64	594.0
99.65	617.0
99.66	643.0
99.67	672.0
99.68	648.0
99.69	616.0
99.7	577.0
99.71	575.0
99.72	604.0
99.73	601.0
99.74	611.0
99.75	606.0
99.76	587.0
99.77	586.0
99.78	590.0
99.79	621.0
99.8	614.0
99.81	580.0
99.82	594.0
99.83	624.0
99.84	607.0
99.85	595.0
99.86	609.0
99.87	628.0
99.88	630.0
99.89	628.0
99.9	621.0
99.91	618.0
99.92	632.0
99.93	637.0
99.94	630.0
99.95	612.0
99.96	601.0
99.97	609.0
99.98	626.0
99.99	643.0
100.0	614.0
