Offstoi_LiMnTiO4_100
Wavelength = 1.54059 Ã… (Cu)
10.0	1743.0
10.01	1722.0
10.02	1729.0
10.03	1729.0
10.04	1704.0
10.05	1647.0
10.06	1702.0
10.07	1742.0
10.08	1737.0
10.09	1768.0
10.1	1758.0
10.11	1717.0
10.12	1708.0
10.13	1695.0
10.14	1693.0
10.15	1697.0
10.16	1690.0
10.17	1749.0
10.18	1717.0
10.19	1700.0
10.2	1730.0
10.21	1739.0
10.22	1744.0
10.23	1736.0
10.24	1719.0
10.25	1716.0
10.26	1768.0
10.27	1741.0
10.28	1749.0
10.29	1701.0
10.3	1716.0
10.31	1761.0
10.32	1758.0
10.33	1728.0
10.34	1641.0
10.35	1685.0
10.36	1679.0
10.37	1705.0
10.38	1714.0
10.39	1755.0
10.4	1740.0
10.41	1788.0
10.42	1722.0
10.43	1733.0
10.44	1757.0
10.45	1700.0
10.46	1726.0
10.47	1750.0
10.48	1832.0
10.49	1735.0
10.5	1695.0
10.51	1716.0
10.52	1733.0
10.53	1787.0
10.54	1771.0
10.55	1699.0
10.56	1726.0
10.57	1807.0
10.58	1778.0
10.59	1755.0
10.6	1770.0
10.61	1755.0
10.62	1781.0
10.63	1762.0
10.64	1737.0
10.65	1723.0
10.66	1739.0
10.67	1724.0
10.68	1753.0
10.69	1765.0
10.7	1761.0
10.71	1797.0
10.72	1797.0
10.73	1773.0
10.74	1791.0
10.75	1747.0
10.76	1788.0
10.77	1804.0
10.78	1762.0
10.79	1743.0
10.8	1790.0
10.81	1810.0
10.82	1783.0
10.83	1801.0
10.84	1856.0
10.85	1812.0
10.86	1800.0
10.87	1758.0
10.88	1798.0
10.89	1831.0
10.9	1785.0
10.91	1788.0
10.92	1753.0
10.93	1763.0
10.94	1808.0
10.95	1777.0
10.96	1758.0
10.97	1778.0
10.98	1807.0
10.99	1778.0
11.0	1835.0
11.01	1828.0
11.02	1845.0
11.03	1856.0
11.04	1833.0
11.05	1803.0
11.06	1828.0
11.07	1851.0
11.08	1854.0
11.09	1815.0
11.1	1809.0
11.11	1781.0
11.12	1776.0
11.13	1834.0
11.14	1809.0
11.15	1856.0
11.16	1837.0
11.17	1872.0
11.18	1911.0
11.19	1860.0
11.2	1863.0
11.21	1767.0
11.22	1832.0
11.23	1838.0
11.24	1787.0
11.25	1773.0
11.26	1771.0
11.27	1807.0
11.28	1849.0
11.29	1861.0
11.3	1834.0
11.31	1834.0
11.32	1835.0
11.33	1821.0
11.34	1843.0
11.35	1890.0
11.36	1818.0
11.37	1849.0
11.38	1813.0
11.39	1850.0
11.4	1871.0
11.41	1826.0
11.42	1831.0
11.43	1880.0
11.44	1872.0
11.45	1831.0
11.46	1792.0
11.47	1828.0
11.48	1838.0
11.49	1827.0
11.5	1848.0
11.51	1838.0
11.52	1821.0
11.53	1879.0
11.54	1826.0
11.55	1819.0
11.56	1866.0
11.57	1907.0
11.58	1859.0
11.59	1836.0
11.6	1820.0
11.61	1825.0
11.62	1832.0
11.63	1901.0
11.64	1858.0
11.65	1867.0
11.66	1929.0
11.67	1900.0
11.68	1858.0
11.69	1855.0
11.7	1831.0
11.71	1825.0
11.72	1847.0
11.73	1853.0
11.74	1890.0
11.75	1860.0
11.76	1914.0
11.77	1871.0
11.78	1866.0
11.79	1891.0
11.8	1754.0
11.81	1867.0
11.82	1865.0
11.83	1898.0
11.84	1921.0
11.85	1894.0
11.86	1825.0
11.87	1824.0
11.88	1862.0
11.89	1857.0
11.9	1882.0
11.91	1919.0
11.92	1847.0
11.93	1804.0
11.94	1873.0
11.95	1877.0
11.96	1845.0
11.97	1840.0
11.98	1885.0
11.99	1884.0
12.0	1876.0
12.01	1855.0
12.02	1835.0
12.03	1884.0
12.04	1859.0
12.05	1902.0
12.06	1935.0
12.07	1889.0
12.08	1928.0
12.09	1916.0
12.1	1887.0
12.11	1909.0
12.12	1901.0
12.13	1878.0
12.14	1868.0
12.15	1864.0
12.16	1952.0
12.17	1925.0
12.18	1918.0
12.19	1928.0
12.2	1939.0
12.21	1987.0
12.22	1957.0
12.23	1972.0
12.24	1915.0
12.25	1937.0
12.26	1873.0
12.27	1916.0
12.28	1972.0
12.29	1955.0
12.3	1989.0
12.31	2019.0
12.32	1969.0
12.33	1957.0
12.34	1969.0
12.35	1913.0
12.36	1874.0
12.37	1927.0
12.38	1979.0
12.39	1936.0
12.4	1949.0
12.41	1984.0
12.42	1971.0
12.43	1962.0
12.44	1914.0
12.45	1932.0
12.46	1939.0
12.47	1953.0
12.48	1890.0
12.49	1884.0
12.5	1943.0
12.51	1924.0
12.52	1945.0
12.53	1922.0
12.54	1940.0
12.55	1948.0
12.56	1959.0
12.57	1917.0
12.58	1932.0
12.59	1972.0
12.6	1932.0
12.61	1918.0
12.62	1939.0
12.63	1911.0
12.64	1911.0
12.65	1882.0
12.66	1927.0
12.67	1980.0
12.68	1979.0
12.69	1985.0
12.7	2000.0
12.71	1956.0
12.72	1962.0
12.73	1966.0
12.74	1938.0
12.75	1965.0
12.76	1946.0
12.77	1902.0
12.78	1894.0
12.79	1948.0
12.8	1928.0
12.81	1914.0
12.82	1970.0
12.83	1997.0
12.84	1946.0
12.85	2010.0
12.86	1951.0
12.87	1965.0
12.88	1964.0
12.89	2001.0
12.9	1936.0
12.91	1965.0
12.92	1972.0
12.93	1978.0
12.94	1973.0
12.95	1992.0
12.96	2003.0
12.97	1984.0
12.98	1978.0
12.99	1977.0
13.0	1961.0
13.01	1972.0
13.02	1987.0
13.03	1969.0
13.04	1993.0
13.05	2000.0
13.06	1984.0
13.07	1932.0
13.08	1951.0
13.09	1958.0
13.1	2002.0
13.11	1986.0
13.12	1977.0
13.13	1941.0
13.14	2046.0
13.15	1993.0
13.16	1948.0
13.17	1982.0
13.18	2009.0
13.19	1996.0
13.2	2021.0
13.21	2029.0
13.22	2022.0
13.23	1991.0
13.24	1940.0
13.25	1927.0
13.26	1966.0
13.27	1950.0
13.28	2008.0
13.29	2016.0
13.3	1993.0
13.31	2049.0
13.32	2048.0
13.33	1979.0
13.34	1960.0
13.35	1984.0
13.36	1996.0
13.37	2006.0
13.38	1997.0
13.39	1985.0
13.4	1975.0
13.41	1979.0
13.42	1990.0
13.43	1976.0
13.44	1994.0
13.45	1978.0
13.46	1958.0
13.47	1985.0
13.48	2009.0
13.49	2036.0
13.5	2025.0
13.51	2055.0
13.52	2013.0
13.53	2015.0
13.54	1982.0
13.55	1987.0
13.56	1997.0
13.57	2023.0
13.58	2026.0
13.59	2025.0
13.6	2007.0
13.61	1991.0
13.62	2016.0
13.63	2031.0
13.64	2012.0
13.65	2011.0
13.66	2047.0
13.67	2042.0
13.68	1983.0
13.69	2013.0
13.7	1969.0
13.71	1933.0
13.72	1961.0
13.73	2012.0
13.74	2012.0
13.75	2048.0
13.76	2059.0
13.77	2050.0
13.78	2005.0
13.79	2024.0
13.8	2050.0
13.81	2014.0
13.82	2025.0
13.83	2019.0
13.84	2013.0
13.85	1989.0
13.86	2016.0
13.87	2074.0
13.88	2028.0
13.89	1994.0
13.9	2011.0
13.91	2042.0
13.92	2064.0
13.93	2009.0
13.94	1984.0
13.95	2022.0
13.96	1999.0
13.97	2002.0
13.98	1999.0
13.99	2038.0
14.0	2058.0
14.01	2064.0
14.02	2061.0
14.03	2076.0
14.04	2044.0
14.05	2042.0
14.06	2042.0
14.07	2021.0
14.08	2034.0
14.09	2022.0
14.1	2017.0
14.11	2030.0
14.12	2032.0
14.13	2038.0
14.14	2083.0
14.15	2080.0
14.16	2073.0
14.17	2018.0
14.18	2068.0
14.19	2088.0
14.2	2062.0
14.21	2045.0
14.22	2032.0
14.23	2064.0
14.24	2128.0
14.25	2124.0
14.26	2085.0
14.27	2105.0
14.28	2126.0
14.29	2105.0
14.3	2110.0
14.31	2082.0
14.32	2071.0
14.33	2124.0
14.34	2098.0
14.35	2102.0
14.36	2055.0
14.37	2072.0
14.38	2109.0
14.39	2126.0
14.4	2088.0
14.41	2049.0
14.42	2056.0
14.43	2061.0
14.44	2071.0
14.45	2055.0
14.46	2009.0
14.47	2008.0
14.48	2041.0
14.49	2082.0
14.5	2119.0
14.51	2060.0
14.52	2013.0
14.53	2079.0
14.54	2072.0
14.55	2058.0
14.56	2092.0
14.57	2054.0
14.58	2067.0
14.59	2062.0
14.6	2137.0
14.61	2106.0
14.62	2066.0
14.63	2074.0
14.64	2133.0
14.65	2135.0
14.66	2101.0
14.67	2085.0
14.68	2131.0
14.69	2134.0
14.7	2098.0
14.71	2113.0
14.72	2136.0
14.73	2106.0
14.74	2104.0
14.75	2114.0
14.76	2126.0
14.77	2102.0
14.78	2068.0
14.79	2113.0
14.8	2172.0
14.81	2176.0
14.82	2146.0
14.83	2119.0
14.84	2082.0
14.85	2116.0
14.86	2150.0
14.87	2103.0
14.88	2078.0
14.89	2094.0
14.9	2081.0
14.91	2090.0
14.92	2100.0
14.93	2108.0
14.94	2163.0
14.95	2174.0
14.96	2157.0
14.97	2122.0
14.98	2093.0
14.99	2089.0
15.0	2102.0
15.01	2119.0
15.02	2077.0
15.03	2083.0
15.04	2127.0
15.05	2077.0
15.06	2078.0
15.07	2122.0
15.08	2132.0
15.09	2138.0
15.1	2110.0
15.11	2088.0
15.12	2105.0
15.13	2063.0
15.14	2087.0
15.15	2133.0
15.16	2125.0
15.17	2081.0
15.18	2029.0
15.19	2076.0
15.2	2091.0
15.21	2096.0
15.22	2063.0
15.23	2025.0
15.24	2106.0
15.25	2072.0
15.26	2040.0
15.27	2035.0
15.28	2041.0
15.29	2039.0
15.3	2044.0
15.31	2064.0
15.32	2043.0
15.33	2064.0
15.34	2067.0
15.35	2036.0
15.36	2054.0
15.37	2041.0
15.38	2030.0
15.39	2032.0
15.4	2049.0
15.41	2023.0
15.42	2024.0
15.43	2047.0
15.44	2048.0
15.45	2032.0
15.46	2018.0
15.47	2024.0
15.48	2073.0
15.49	2094.0
15.5	2070.0
15.51	2022.0
15.52	2008.0
15.53	2046.0
15.54	2100.0
15.55	2088.0
15.56	2046.0
15.57	2041.0
15.58	2037.0
15.59	2020.0
15.6	2045.0
15.61	2046.0
15.62	2025.0
15.63	2004.0
15.64	2012.0
15.65	2009.0
15.66	1974.0
15.67	1956.0
15.68	1997.0
15.69	2047.0
15.7	2035.0
15.71	2038.0
15.72	2075.0
15.73	2052.0
15.74	1990.0
15.75	1979.0
15.76	1994.0
15.77	1989.0
15.78	2026.0
15.79	2051.0
15.8	2018.0
15.81	2009.0
15.82	2029.0
15.83	1988.0
15.84	1980.0
15.85	2006.0
15.86	2014.0
15.87	1989.0
15.88	1969.0
15.89	1977.0
15.9	2016.0
15.91	2057.0
15.92	2053.0
15.93	2014.0
15.94	2021.0
15.95	2016.0
15.96	1986.0
15.97	2004.0
15.98	2006.0
15.99	2009.0
16.0	2009.0
16.01	2007.0
16.02	2007.0
16.03	2020.0
16.04	1994.0
16.05	2010.0
16.06	2046.0
16.07	2059.0
16.08	2064.0
16.09	2027.0
16.1	1986.0
16.11	1987.0
16.12	1985.0
16.13	1971.0
16.14	1979.0
16.15	1988.0
16.16	1989.0
16.17	1984.0
16.18	1971.0
16.19	2000.0
16.2	2044.0
16.21	2030.0
16.22	2014.0
16.23	2006.0
16.24	2009.0
16.25	2024.0
16.26	2009.0
16.27	1978.0
16.28	1963.0
16.29	2018.0
16.3	2018.0
16.31	1996.0
16.32	2012.0
16.33	2021.0
16.34	1990.0
16.35	1962.0
16.36	1975.0
16.37	1996.0
16.38	2005.0
16.39	1981.0
16.4	1972.0
16.41	1976.0
16.42	1947.0
16.43	1955.0
16.44	2004.0
16.45	2018.0
16.46	1999.0
16.47	2015.0
16.48	1996.0
16.49	1988.0
16.5	1978.0
16.51	1970.0
16.52	1985.0
16.53	1956.0
16.54	1967.0
16.55	1993.0
16.56	1998.0
16.57	2002.0
16.58	2008.0
16.59	2007.0
16.6	1983.0
16.61	1960.0
16.62	1938.0
16.63	1955.0
16.64	1996.0
16.65	1976.0
16.66	1964.0
16.67	1974.0
16.68	1965.0
16.69	1968.0
16.7	2003.0
16.71	2023.0
16.72	2006.0
16.73	1968.0
16.74	1939.0
16.75	1951.0
16.76	1987.0
16.77	1995.0
16.78	1984.0
16.79	1979.0
16.8	1979.0
16.81	1987.0
16.82	1989.0
16.83	1984.0
16.84	1963.0
16.85	1972.0
16.86	1960.0
16.87	1950.0
16.88	1991.0
16.89	2012.0
16.9	1989.0
16.91	1940.0
16.92	1941.0
16.93	1972.0
16.94	1960.0
16.95	1994.0
16.96	2012.0
16.97	1980.0
16.98	1972.0
16.99	1994.0
17.0	2035.0
17.01	2037.0
17.02	1999.0
17.03	1958.0
17.04	1949.0
17.05	1979.0
17.06	1990.0
17.07	1963.0
17.08	1963.0
17.09	1982.0
17.1	1940.0
17.11	1884.0
17.12	1900.0
17.13	1935.0
17.14	1960.0
17.15	1964.0
17.16	1931.0
17.17	1917.0
17.18	1929.0
17.19	1925.0
17.2	1905.0
17.21	1916.0
17.22	1956.0
17.23	1963.0
17.24	1945.0
17.25	1956.0
17.26	1984.0
17.27	1958.0
17.28	1935.0
17.29	1934.0
17.3	1939.0
17.31	1967.0
17.32	1961.0
17.33	1934.0
17.34	1901.0
17.35	1891.0
17.36	1910.0
17.37	1933.0
17.38	1931.0
17.39	1909.0
17.4	1910.0
17.41	1935.0
17.42	1980.0
17.43	1987.0
17.44	1981.0
17.45	2007.0
17.46	1980.0
17.47	1930.0
17.48	1949.0
17.49	1974.0
17.5	1966.0
17.51	1943.0
17.52	1923.0
17.53	1940.0
17.54	1981.0
17.55	1980.0
17.56	1953.0
17.57	1930.0
17.58	1900.0
17.59	1929.0
17.6	1966.0
17.61	2003.0
17.62	2044.0
17.63	2015.0
17.64	1965.0
17.65	1938.0
17.66	1948.0
17.67	1982.0
17.68	1997.0
17.69	1989.0
17.7	1963.0
17.71	1964.0
17.72	1969.0
17.73	1967.0
17.74	1954.0
17.75	1947.0
17.76	2001.0
17.77	2025.0
17.78	2018.0
17.79	2012.0
17.8	1999.0
17.81	2001.0
17.82	1992.0
17.83	1986.0
17.84	1982.0
17.85	1976.0
17.86	1989.0
17.87	1996.0
17.88	1990.0
17.89	1987.0
17.9	1980.0
17.91	1983.0
17.92	1993.0
17.93	2010.0
17.94	2019.0
17.95	2035.0
17.96	2080.0
17.97	2093.0
17.98	2098.0
17.99	2084.0
18.0	2074.0
18.01	2080.0
18.02	2084.0
18.03	2098.0
18.04	2102.0
18.05	2106.0
18.06	2149.0
18.07	2150.0
18.08	2128.0
18.09	2160.0
18.1	2178.0
18.11	2164.0
18.12	2156.0
18.13	2192.0
18.14	2270.0
18.15	2303.0
18.16	2309.0
18.17	2348.0
18.18	2430.0
18.19	2512.0
18.2	2561.0
18.21	2601.0
18.22	2676.0
18.23	2775.0
18.24	2888.0
18.25	3020.0
18.26	3219.0
18.27	3390.0
18.28	3570.0
18.29	3815.0
18.3	4092.0
18.31	4356.0
18.32	4692.0
18.33	5088.0
18.34	5603.0
18.35	6151.0
18.36	6625.0
18.37	6894.0
18.38	7051.0
18.39	7183.0
18.4	7035.0
18.41	6622.0
18.42	6124.0
18.43	5581.0
18.44	4937.0
18.45	4312.0
18.46	3797.0
18.47	3328.0
18.48	2949.0
18.49	2695.0
18.5	2510.0
18.51	2367.0
18.52	2281.0
18.53	2262.0
18.54	2208.0
18.55	2166.0
18.56	2138.0
18.57	2104.0
18.58	2071.0
18.59	2090.0
18.6	2094.0
18.61	2073.0
18.62	2055.0
18.63	2068.0
18.64	2082.0
18.65	2061.0
18.66	2040.0
18.67	2045.0
18.68	2020.0
18.69	2017.0
18.7	2046.0
18.71	2035.0
18.72	2032.0
18.73	2015.0
18.74	2018.0
18.75	2043.0
18.76	2031.0
18.77	2002.0
18.78	1957.0
18.79	1952.0
18.8	1972.0
18.81	1987.0
18.82	1994.0
18.83	1919.0
18.84	1924.0
18.85	1960.0
18.86	1971.0
18.87	1955.0
18.88	1918.0
18.89	1928.0
18.9	1922.0
18.91	1899.0
18.92	1902.0
18.93	1937.0
18.94	1947.0
18.95	1962.0
18.96	1976.0
18.97	1957.0
18.98	1933.0
18.99	1934.0
19.0	1924.0
19.01	1895.0
19.02	1876.0
19.03	1899.0
19.04	1924.0
19.05	1926.0
19.06	1961.0
19.07	1971.0
19.08	1921.0
19.09	1913.0
19.1	1923.0
19.11	1921.0
19.12	1920.0
19.13	1922.0
19.14	1929.0
19.15	1900.0
19.16	1875.0
19.17	1897.0
19.18	1921.0
19.19	1887.0
19.2	1879.0
19.21	1885.0
19.22	1876.0
19.23	1886.0
19.24	1920.0
19.25	1903.0
19.26	1879.0
19.27	1873.0
19.28	1870.0
19.29	1856.0
19.3	1882.0
19.31	1894.0
19.32	1858.0
19.33	1827.0
19.34	1822.0
19.35	1852.0
19.36	1884.0
19.37	1876.0
19.38	1894.0
19.39	1861.0
19.4	1829.0
19.41	1834.0
19.42	1833.0
19.43	1805.0
19.44	1827.0
19.45	1861.0
19.46	1860.0
19.47	1827.0
19.48	1839.0
19.49	1832.0
19.5	1858.0
19.51	1856.0
19.52	1838.0
19.53	1818.0
19.54	1829.0
19.55	1863.0
19.56	1868.0
19.57	1877.0
19.58	1875.0
19.59	1823.0
19.6	1790.0
19.61	1811.0
19.62	1853.0
19.63	1827.0
19.64	1828.0
19.65	1880.0
19.66	1863.0
19.67	1843.0
19.68	1805.0
19.69	1814.0
19.7	1844.0
19.71	1828.0
19.72	1825.0
19.73	1836.0
19.74	1820.0
19.75	1814.0
19.76	1784.0
19.77	1748.0
19.78	1761.0
19.79	1832.0
19.8	1823.0
19.81	1751.0
19.82	1806.0
19.83	1813.0
19.84	1770.0
19.85	1756.0
19.86	1787.0
19.87	1817.0
19.88	1825.0
19.89	1782.0
19.9	1763.0
19.91	1783.0
19.92	1822.0
19.93	1820.0
19.94	1834.0
19.95	1815.0
19.96	1792.0
19.97	1811.0
19.98	1818.0
19.99	1785.0
20.0	1795.0
20.01	1795.0
20.02	1745.0
20.03	1735.0
20.04	1744.0
20.05	1820.0
20.06	1814.0
20.07	1740.0
20.08	1750.0
20.09	1773.0
20.1	1784.0
20.11	1767.0
20.12	1788.0
20.13	1774.0
20.14	1761.0
20.15	1784.0
20.16	1779.0
20.17	1747.0
20.18	1710.0
20.19	1676.0
20.2	1703.0
20.21	1745.0
20.22	1731.0
20.23	1729.0
20.24	1745.0
20.25	1725.0
20.26	1738.0
20.27	1746.0
20.28	1742.0
20.29	1744.0
20.3	1780.0
20.31	1777.0
20.32	1753.0
20.33	1720.0
20.34	1675.0
20.35	1676.0
20.36	1708.0
20.37	1769.0
20.38	1765.0
20.39	1729.0
20.4	1734.0
20.41	1734.0
20.42	1737.0
20.43	1738.0
20.44	1726.0
20.45	1743.0
20.46	1771.0
20.47	1726.0
20.48	1734.0
20.49	1721.0
20.5	1712.0
20.51	1711.0
20.52	1765.0
20.53	1730.0
20.54	1727.0
20.55	1745.0
20.56	1735.0
20.57	1731.0
20.58	1721.0
20.59	1716.0
20.6	1707.0
20.61	1738.0
20.62	1797.0
20.63	1791.0
20.64	1726.0
20.65	1720.0
20.66	1741.0
20.67	1716.0
20.68	1731.0
20.69	1752.0
20.7	1760.0
20.71	1729.0
20.72	1697.0
20.73	1683.0
20.74	1644.0
20.75	1652.0
20.76	1670.0
20.77	1707.0
20.78	1730.0
20.79	1676.0
20.8	1697.0
20.81	1694.0
20.82	1687.0
20.83	1690.0
20.84	1720.0
20.85	1718.0
20.86	1700.0
20.87	1691.0
20.88	1681.0
20.89	1687.0
20.9	1689.0
20.91	1710.0
20.92	1763.0
20.93	1738.0
20.94	1701.0
20.95	1681.0
20.96	1730.0
20.97	1714.0
20.98	1674.0
20.99	1705.0
21.0	1692.0
21.01	1702.0
21.02	1685.0
21.03	1674.0
21.04	1689.0
21.05	1671.0
21.06	1642.0
21.07	1640.0
21.08	1702.0
21.09	1701.0
21.1	1679.0
21.11	1661.0
21.12	1652.0
21.13	1632.0
21.14	1658.0
21.15	1725.0
21.16	1745.0
21.17	1683.0
21.18	1638.0
21.19	1657.0
21.2	1707.0
21.21	1693.0
21.22	1640.0
21.23	1645.0
21.24	1684.0
21.25	1705.0
21.26	1667.0
21.27	1636.0
21.28	1609.0
21.29	1595.0
21.3	1683.0
21.31	1704.0
21.32	1696.0
21.33	1662.0
21.34	1650.0
21.35	1682.0
21.36	1663.0
21.37	1617.0
21.38	1679.0
21.39	1662.0
21.4	1638.0
21.41	1636.0
21.42	1637.0
21.43	1620.0
21.44	1648.0
21.45	1651.0
21.46	1654.0
21.47	1682.0
21.48	1659.0
21.49	1622.0
21.5	1607.0
21.51	1649.0
21.52	1622.0
21.53	1685.0
21.54	1642.0
21.55	1648.0
21.56	1622.0
21.57	1621.0
21.58	1590.0
21.59	1636.0
21.6	1668.0
21.61	1637.0
21.62	1624.0
21.63	1600.0
21.64	1596.0
21.65	1545.0
21.66	1597.0
21.67	1608.0
21.68	1623.0
21.69	1620.0
21.7	1599.0
21.71	1575.0
21.72	1564.0
21.73	1615.0
21.74	1646.0
21.75	1613.0
21.76	1636.0
21.77	1580.0
21.78	1633.0
21.79	1617.0
21.8	1591.0
21.81	1586.0
21.82	1602.0
21.83	1614.0
21.84	1595.0
21.85	1583.0
21.86	1641.0
21.87	1615.0
21.88	1569.0
21.89	1572.0
21.9	1606.0
21.91	1624.0
21.92	1593.0
21.93	1647.0
21.94	1588.0
21.95	1620.0
21.96	1633.0
21.97	1623.0
21.98	1587.0
21.99	1598.0
22.0	1667.0
22.01	1617.0
22.02	1605.0
22.03	1566.0
22.04	1575.0
22.05	1639.0
22.06	1623.0
22.07	1618.0
22.08	1641.0
22.09	1599.0
22.1	1572.0
22.11	1596.0
22.12	1635.0
22.13	1620.0
22.14	1550.0
22.15	1540.0
22.16	1588.0
22.17	1580.0
22.18	1559.0
22.19	1567.0
22.2	1582.0
22.21	1598.0
22.22	1565.0
22.23	1578.0
22.24	1573.0
22.25	1565.0
22.26	1568.0
22.27	1591.0
22.28	1563.0
22.29	1550.0
22.3	1599.0
22.31	1603.0
22.32	1567.0
22.33	1570.0
22.34	1593.0
22.35	1521.0
22.36	1538.0
22.37	1562.0
22.38	1548.0
22.39	1553.0
22.4	1644.0
22.41	1585.0
22.42	1517.0
22.43	1537.0
22.44	1527.0
22.45	1497.0
22.46	1556.0
22.47	1568.0
22.48	1575.0
22.49	1569.0
22.5	1556.0
22.51	1560.0
22.52	1504.0
22.53	1498.0
22.54	1547.0
22.55	1528.0
22.56	1550.0
22.57	1545.0
22.58	1588.0
22.59	1508.0
22.6	1538.0
22.61	1504.0
22.62	1516.0
22.63	1591.0
22.64	1578.0
22.65	1549.0
22.66	1516.0
22.67	1533.0
22.68	1535.0
22.69	1497.0
22.7	1528.0
22.71	1526.0
22.72	1517.0
22.73	1548.0
22.74	1519.0
22.75	1463.0
22.76	1447.0
22.77	1546.0
22.78	1582.0
22.79	1504.0
22.8	1547.0
22.81	1499.0
22.82	1520.0
22.83	1540.0
22.84	1552.0
22.85	1537.0
22.86	1516.0
22.87	1525.0
22.88	1489.0
22.89	1443.0
22.9	1494.0
22.91	1517.0
22.92	1523.0
22.93	1524.0
22.94	1517.0
22.95	1510.0
22.96	1481.0
22.97	1523.0
22.98	1506.0
22.99	1471.0
23.0	1518.0
23.01	1508.0
23.02	1512.0
23.03	1523.0
23.04	1530.0
23.05	1528.0
23.06	1526.0
23.07	1506.0
23.08	1512.0
23.09	1503.0
23.1	1528.0
23.11	1548.0
23.12	1492.0
23.13	1517.0
23.14	1511.0
23.15	1491.0
23.16	1496.0
23.17	1540.0
23.18	1532.0
23.19	1540.0
23.2	1551.0
23.21	1523.0
23.22	1551.0
23.23	1525.0
23.24	1511.0
23.25	1514.0
23.26	1552.0
23.27	1581.0
23.28	1557.0
23.29	1532.0
23.3	1543.0
23.31	1539.0
23.32	1464.0
23.33	1499.0
23.34	1566.0
23.35	1528.0
23.36	1508.0
23.37	1542.0
23.38	1516.0
23.39	1525.0
23.4	1604.0
23.41	1573.0
23.42	1554.0
23.43	1590.0
23.44	1548.0
23.45	1530.0
23.46	1598.0
23.47	1573.0
23.48	1532.0
23.49	1575.0
23.5	1572.0
23.51	1568.0
23.52	1587.0
23.53	1586.0
23.54	1593.0
23.55	1595.0
23.56	1566.0
23.57	1585.0
23.58	1581.0
23.59	1574.0
23.6	1577.0
23.61	1551.0
23.62	1602.0
23.63	1631.0
23.64	1614.0
23.65	1564.0
23.66	1600.0
23.67	1602.0
23.68	1632.0
23.69	1599.0
23.7	1608.0
23.71	1596.0
23.72	1596.0
23.73	1630.0
23.74	1576.0
23.75	1565.0
23.76	1561.0
23.77	1570.0
23.78	1551.0
23.79	1561.0
23.8	1580.0
23.81	1584.0
23.82	1570.0
23.83	1577.0
23.84	1549.0
23.85	1548.0
23.86	1545.0
23.87	1531.0
23.88	1577.0
23.89	1534.0
23.9	1543.0
23.91	1520.0
23.92	1539.0
23.93	1519.0
23.94	1526.0
23.95	1538.0
23.96	1549.0
23.97	1527.0
23.98	1544.0
23.99	1543.0
24.0	1493.0
24.01	1492.0
24.02	1515.0
24.03	1450.0
24.04	1457.0
24.05	1471.0
24.06	1493.0
24.07	1509.0
24.08	1445.0
24.09	1459.0
24.1	1491.0
24.11	1467.0
24.12	1453.0
24.13	1423.0
24.14	1410.0
24.15	1433.0
24.16	1459.0
24.17	1426.0
24.18	1425.0
24.19	1438.0
24.2	1433.0
24.21	1433.0
24.22	1419.0
24.23	1383.0
24.24	1391.0
24.25	1398.0
24.26	1397.0
24.27	1389.0
24.28	1413.0
24.29	1402.0
24.3	1407.0
24.31	1460.0
24.32	1458.0
24.33	1411.0
24.34	1396.0
24.35	1395.0
24.36	1406.0
24.37	1418.0
24.38	1422.0
24.39	1385.0
24.4	1387.0
24.41	1442.0
24.42	1432.0
24.43	1392.0
24.44	1372.0
24.45	1413.0
24.46	1405.0
24.47	1383.0
24.48	1403.0
24.49	1380.0
24.5	1354.0
24.51	1384.0
24.52	1368.0
24.53	1372.0
24.54	1391.0
24.55	1336.0
24.56	1352.0
24.57	1367.0
24.58	1357.0
24.59	1357.0
24.6	1350.0
24.61	1368.0
24.62	1370.0
24.63	1355.0
24.64	1360.0
24.65	1390.0
24.66	1366.0
24.67	1319.0
24.68	1339.0
24.69	1378.0
24.7	1351.0
24.71	1311.0
24.72	1312.0
24.73	1329.0
24.74	1331.0
24.75	1322.0
24.76	1347.0
24.77	1407.0
24.78	1333.0
24.79	1308.0
24.8	1338.0
24.81	1324.0
24.82	1328.0
24.83	1345.0
24.84	1355.0
24.85	1355.0
24.86	1373.0
24.87	1372.0
24.88	1375.0
24.89	1345.0
24.9	1352.0
24.91	1410.0
24.92	1387.0
24.93	1354.0
24.94	1373.0
24.95	1369.0
24.96	1316.0
24.97	1310.0
24.98	1301.0
24.99	1295.0
25.0	1317.0
25.01	1328.0
25.02	1320.0
25.03	1306.0
25.04	1318.0
25.05	1334.0
25.06	1360.0
25.07	1345.0
25.08	1316.0
25.09	1325.0
25.1	1313.0
25.11	1299.0
25.12	1295.0
25.13	1309.0
25.14	1315.0
25.15	1331.0
25.16	1343.0
25.17	1323.0
25.18	1314.0
25.19	1320.0
25.2	1331.0
25.21	1306.0
25.22	1285.0
25.23	1308.0
25.24	1302.0
25.25	1311.0
25.26	1281.0
25.27	1279.0
25.28	1332.0
25.29	1359.0
25.3	1311.0
25.31	1291.0
25.32	1300.0
25.33	1292.0
25.34	1293.0
25.35	1309.0
25.36	1311.0
25.37	1321.0
25.38	1317.0
25.39	1345.0
25.4	1362.0
25.41	1341.0
25.42	1339.0
25.43	1329.0
25.44	1282.0
25.45	1275.0
25.46	1298.0
25.47	1318.0
25.48	1318.0
25.49	1327.0
25.5	1312.0
25.51	1307.0
25.52	1347.0
25.53	1351.0
25.54	1307.0
25.55	1282.0
25.56	1317.0
25.57	1332.0
25.58	1355.0
25.59	1367.0
25.6	1349.0
25.61	1320.0
25.62	1305.0
25.63	1348.0
25.64	1353.0
25.65	1336.0
25.66	1305.0
25.67	1266.0
25.68	1298.0
25.69	1313.0
25.7	1306.0
25.71	1318.0
25.72	1327.0
25.73	1323.0
25.74	1317.0
25.75	1316.0
25.76	1301.0
25.77	1310.0
25.78	1342.0
25.79	1351.0
25.8	1344.0
25.81	1324.0
25.82	1318.0
25.83	1327.0
25.84	1362.0
25.85	1362.0
25.86	1309.0
25.87	1312.0
25.88	1323.0
25.89	1331.0
25.9	1385.0
25.91	1385.0
25.92	1343.0
25.93	1338.0
25.94	1368.0
25.95	1394.0
25.96	1377.0
25.97	1334.0
25.98	1322.0
25.99	1327.0
26.0	1325.0
26.01	1315.0
26.02	1338.0
26.03	1332.0
26.04	1325.0
26.05	1349.0
26.06	1348.0
26.07	1336.0
26.08	1314.0
26.09	1336.0
26.1	1347.0
26.11	1367.0
26.12	1357.0
26.13	1330.0
26.14	1337.0
26.15	1350.0
26.16	1340.0
26.17	1326.0
26.18	1329.0
26.19	1342.0
26.2	1367.0
26.21	1331.0
26.22	1293.0
26.23	1299.0
26.24	1298.0
26.25	1322.0
26.26	1334.0
26.27	1304.0
26.28	1275.0
26.29	1277.0
26.3	1295.0
26.31	1297.0
26.32	1318.0
26.33	1332.0
26.34	1309.0
26.35	1283.0
26.36	1281.0
26.37	1283.0
26.38	1291.0
26.39	1295.0
26.4	1287.0
26.41	1261.0
26.42	1245.0
26.43	1246.0
26.44	1281.0
26.45	1285.0
26.46	1216.0
26.47	1210.0
26.48	1242.0
26.49	1250.0
26.5	1251.0
26.51	1244.0
26.52	1235.0
26.53	1242.0
26.54	1267.0
26.55	1292.0
26.56	1285.0
26.57	1249.0
26.58	1217.0
26.59	1215.0
26.6	1227.0
26.61	1246.0
26.62	1297.0
26.63	1324.0
26.64	1332.0
26.65	1329.0
26.66	1333.0
26.67	1295.0
26.68	1248.0
26.69	1271.0
26.7	1284.0
26.71	1282.0
26.72	1273.0
26.73	1280.0
26.74	1267.0
26.75	1222.0
26.76	1239.0
26.77	1270.0
26.78	1250.0
26.79	1219.0
26.8	1224.0
26.81	1251.0
26.82	1246.0
26.83	1248.0
26.84	1256.0
26.85	1235.0
26.86	1228.0
26.87	1229.0
26.88	1205.0
26.89	1189.0
26.9	1181.0
26.91	1172.0
26.92	1192.0
26.93	1195.0
26.94	1210.0
26.95	1230.0
26.96	1197.0
26.97	1185.0
26.98	1211.0
26.99	1226.0
27.0	1203.0
27.01	1164.0
27.02	1157.0
27.03	1175.0
27.04	1180.0
27.05	1170.0
27.06	1176.0
27.07	1174.0
27.08	1171.0
27.09	1197.0
27.1	1181.0
27.11	1164.0
27.12	1163.0
27.13	1182.0
27.14	1209.0
27.15	1176.0
27.16	1163.0
27.17	1188.0
27.18	1183.0
27.19	1162.0
27.2	1159.0
27.21	1172.0
27.22	1182.0
27.23	1164.0
27.24	1147.0
27.25	1157.0
27.26	1171.0
27.27	1165.0
27.28	1191.0
27.29	1210.0
27.3	1196.0
27.31	1203.0
27.32	1193.0
27.33	1186.0
27.34	1194.0
27.35	1170.0
27.36	1148.0
27.37	1159.0
27.38	1179.0
27.39	1181.0
27.4	1190.0
27.41	1192.0
27.42	1165.0
27.43	1148.0
27.44	1152.0
27.45	1186.0
27.46	1201.0
27.47	1199.0
27.48	1198.0
27.49	1181.0
27.5	1163.0
27.51	1163.0
27.52	1149.0
27.53	1145.0
27.54	1161.0
27.55	1174.0
27.56	1195.0
27.57	1194.0
27.58	1180.0
27.59	1172.0
27.6	1159.0
27.61	1145.0
27.62	1173.0
27.63	1200.0
27.64	1170.0
27.65	1142.0
27.66	1148.0
27.67	1139.0
27.68	1166.0
27.69	1201.0
27.7	1199.0
27.71	1164.0
27.72	1129.0
27.73	1121.0
27.74	1142.0
27.75	1150.0
27.76	1149.0
27.77	1138.0
27.78	1151.0
27.79	1172.0
27.8	1157.0
27.81	1135.0
27.82	1148.0
27.83	1146.0
27.84	1117.0
27.85	1119.0
27.86	1131.0
27.87	1144.0
27.88	1163.0
27.89	1162.0
27.9	1172.0
27.91	1179.0
27.92	1162.0
27.93	1140.0
27.94	1156.0
27.95	1185.0
27.96	1153.0
27.97	1137.0
27.98	1137.0
27.99	1126.0
28.0	1123.0
28.01	1130.0
28.02	1151.0
28.03	1146.0
28.04	1158.0
28.05	1170.0
28.06	1157.0
28.07	1146.0
28.08	1139.0
28.09	1112.0
28.1	1103.0
28.11	1101.0
28.12	1088.0
28.13	1111.0
28.14	1125.0
28.15	1122.0
28.16	1105.0
28.17	1114.0
28.18	1145.0
28.19	1131.0
28.2	1119.0
28.21	1120.0
28.22	1126.0
28.23	1110.0
28.24	1081.0
28.25	1075.0
28.26	1108.0
28.27	1105.0
28.28	1069.0
28.29	1107.0
28.3	1125.0
28.31	1115.0
28.32	1135.0
28.33	1128.0
28.34	1103.0
28.35	1113.0
28.36	1112.0
28.37	1105.0
28.38	1118.0
28.39	1109.0
28.4	1101.0
28.41	1081.0
28.42	1069.0
28.43	1067.0
28.44	1079.0
28.45	1108.0
28.46	1105.0
28.47	1099.0
28.48	1093.0
28.49	1108.0
28.5	1135.0
28.51	1137.0
28.52	1127.0
28.53	1103.0
28.54	1120.0
28.55	1123.0
28.56	1099.0
28.57	1080.0
28.58	1108.0
28.59	1129.0
28.6	1108.0
28.61	1096.0
28.62	1098.0
28.63	1094.0
28.64	1102.0
28.65	1134.0
28.66	1125.0
28.67	1107.0
28.68	1097.0
28.69	1079.0
28.7	1082.0
28.71	1117.0
28.72	1096.0
28.73	1077.0
28.74	1079.0
28.75	1089.0
28.76	1098.0
28.77	1100.0
28.78	1098.0
28.79	1063.0
28.8	1079.0
28.81	1070.0
28.82	1074.0
28.83	1063.0
28.84	1079.0
28.85	1104.0
28.86	1124.0
28.87	1105.0
28.88	1098.0
28.89	1091.0
28.9	1074.0
28.91	1081.0
28.92	1093.0
28.93	1084.0
28.94	1091.0
28.95	1090.0
28.96	1091.0
28.97	1072.0
28.98	1051.0
28.99	1066.0
29.0	1102.0
29.01	1078.0
29.02	1102.0
29.03	1110.0
29.04	1122.0
29.05	1112.0
29.06	1105.0
29.07	1094.0
29.08	1069.0
29.09	1063.0
29.1	1094.0
29.11	1095.0
29.12	1061.0
29.13	1060.0
29.14	1061.0
29.15	1053.0
29.16	1074.0
29.17	1079.0
29.18	1043.0
29.19	1040.0
29.2	1058.0
29.21	1110.0
29.22	1120.0
29.23	1081.0
29.24	1084.0
29.25	1068.0
29.26	1053.0
29.27	1048.0
29.28	1065.0
29.29	1075.0
29.3	1063.0
29.31	1055.0
29.32	1060.0
29.33	1065.0
29.34	1080.0
29.35	1076.0
29.36	1057.0
29.37	1040.0
29.38	1028.0
29.39	1053.0
29.4	1095.0
29.41	1083.0
29.42	1066.0
29.43	1057.0
29.44	1052.0
29.45	1057.0
29.46	1104.0
29.47	1106.0
29.48	1094.0
29.49	1057.0
29.5	1027.0
29.51	1048.0
29.52	1082.0
29.53	1082.0
29.54	1064.0
29.55	1048.0
29.56	1070.0
29.57	1064.0
29.58	1045.0
29.59	1022.0
29.6	1010.0
29.61	1051.0
29.62	1098.0
29.63	1098.0
29.64	1042.0
29.65	1038.0
29.66	1060.0
29.67	1070.0
29.68	1044.0
29.69	1035.0
29.7	1054.0
29.71	1060.0
29.72	1060.0
29.73	1055.0
29.74	1054.0
29.75	1054.0
29.76	1095.0
29.77	1096.0
29.78	1053.0
29.79	1035.0
29.8	1071.0
29.81	1088.0
29.82	1058.0
29.83	1044.0
29.84	1026.0
29.85	1025.0
29.86	1043.0
29.87	1070.0
29.88	1089.0
29.89	1053.0
29.9	1088.0
29.91	1069.0
29.92	1080.0
29.93	1080.0
29.94	1079.0
29.95	1071.0
29.96	1073.0
29.97	1059.0
29.98	1058.0
29.99	1062.0
30.0	1081.0
30.01	1064.0
30.02	1082.0
30.03	1090.0
30.04	1131.0
30.05	1121.0
30.06	1071.0
30.07	1083.0
30.08	1142.0
30.09	1151.0
30.1	1152.0
30.11	1204.0
30.12	1207.0
30.13	1238.0
30.14	1285.0
30.15	1320.0
30.16	1373.0
30.17	1448.0
30.18	1532.0
30.19	1599.0
30.2	1672.0
30.21	1732.0
30.22	1785.0
30.23	1815.0
30.24	1830.0
30.25	1820.0
30.26	1653.0
30.27	1611.0
30.28	1579.0
30.29	1511.0
30.3	1497.0
30.31	1470.0
30.32	1405.0
30.33	1323.0
30.34	1309.0
30.35	1223.0
30.36	1166.0
30.37	1147.0
30.38	1107.0
30.39	1081.0
30.4	1062.0
30.41	1038.0
30.42	1058.0
30.43	1047.0
30.44	1026.0
30.45	1025.0
30.46	1048.0
30.47	1058.0
30.48	1026.0
30.49	1005.0
30.5	980.0
30.51	1020.0
30.52	1011.0
30.53	996.0
30.54	992.0
30.55	977.0
30.56	986.0
30.57	1048.0
30.58	1047.0
30.59	1062.0
30.6	1068.0
30.61	1006.0
30.62	963.0
30.63	1020.0
30.64	1032.0
30.65	1022.0
30.66	1018.0
30.67	1016.0
30.68	980.0
30.69	1010.0
30.7	1037.0
30.71	1038.0
30.72	1017.0
30.73	1036.0
30.74	974.0
30.75	980.0
30.76	982.0
30.77	993.0
30.78	996.0
30.79	967.0
30.8	966.0
30.81	997.0
30.82	1007.0
30.83	1002.0
30.84	991.0
30.85	966.0
30.86	971.0
30.87	981.0
30.88	988.0
30.89	1021.0
30.9	991.0
30.91	967.0
30.92	977.0
30.93	941.0
30.94	947.0
30.95	958.0
30.96	953.0
30.97	976.0
30.98	1012.0
30.99	1020.0
31.0	985.0
31.01	980.0
31.02	999.0
31.03	984.0
31.04	989.0
31.05	942.0
31.06	947.0
31.07	961.0
31.08	951.0
31.09	963.0
31.1	956.0
31.11	957.0
31.12	980.0
31.13	976.0
31.14	955.0
31.15	933.0
31.16	973.0
31.17	944.0
31.18	984.0
31.19	988.0
31.2	960.0
31.21	939.0
31.22	936.0
31.23	975.0
31.24	978.0
31.25	977.0
31.26	980.0
31.27	985.0
31.28	924.0
31.29	971.0
31.3	958.0
31.31	996.0
31.32	970.0
31.33	976.0
31.34	982.0
31.35	975.0
31.36	904.0
31.37	872.0
31.38	884.0
31.39	916.0
31.4	951.0
31.41	947.0
31.42	937.0
31.43	943.0
31.44	932.0
31.45	960.0
31.46	967.0
31.47	983.0
31.48	977.0
31.49	941.0
31.5	964.0
31.51	979.0
31.52	963.0
31.53	958.0
31.54	942.0
31.55	943.0
31.56	927.0
31.57	925.0
31.58	960.0
31.59	951.0
31.6	962.0
31.61	963.0
31.62	957.0
31.63	950.0
31.64	958.0
31.65	990.0
31.66	968.0
31.67	987.0
31.68	971.0
31.69	957.0
31.7	928.0
31.71	944.0
31.72	946.0
31.73	950.0
31.74	938.0
31.75	928.0
31.76	972.0
31.77	977.0
31.78	933.0
31.79	936.0
31.8	934.0
31.81	934.0
31.82	944.0
31.83	966.0
31.84	964.0
31.85	948.0
31.86	959.0
31.87	938.0
31.88	910.0
31.89	952.0
31.9	944.0
31.91	998.0
31.92	943.0
31.93	944.0
31.94	924.0
31.95	947.0
31.96	930.0
31.97	948.0
31.98	975.0
31.99	982.0
32.0	975.0
32.01	959.0
32.02	937.0
32.03	959.0
32.04	938.0
32.05	895.0
32.06	880.0
32.07	916.0
32.08	937.0
32.09	957.0
32.1	954.0
32.11	926.0
32.12	919.0
32.13	920.0
32.14	937.0
32.15	943.0
32.16	942.0
32.17	961.0
32.18	958.0
32.19	923.0
32.2	899.0
32.21	977.0
32.22	979.0
32.23	933.0
32.24	951.0
32.25	946.0
32.26	932.0
32.27	935.0
32.28	956.0
32.29	939.0
32.3	989.0
32.31	980.0
32.32	957.0
32.33	952.0
32.34	924.0
32.35	930.0
32.36	934.0
32.37	920.0
32.38	944.0
32.39	947.0
32.4	942.0
32.41	903.0
32.42	913.0
32.43	927.0
32.44	928.0
32.45	933.0
32.46	917.0
32.47	918.0
32.48	919.0
32.49	921.0
32.5	927.0
32.51	936.0
32.52	937.0
32.53	966.0
32.54	943.0
32.55	895.0
32.56	876.0
32.57	924.0
32.58	964.0
32.59	963.0
32.6	910.0
32.61	908.0
32.62	922.0
32.63	900.0
32.64	910.0
32.65	907.0
32.66	914.0
32.67	927.0
32.68	915.0
32.69	884.0
32.7	901.0
32.71	930.0
32.72	920.0
32.73	889.0
32.74	893.0
32.75	912.0
32.76	877.0
32.77	916.0
32.78	918.0
32.79	886.0
32.8	941.0
32.81	882.0
32.82	914.0
32.83	921.0
32.84	932.0
32.85	940.0
32.86	953.0
32.87	910.0
32.88	893.0
32.89	905.0
32.9	884.0
32.91	878.0
32.92	906.0
32.93	905.0
32.94	918.0
32.95	884.0
32.96	901.0
32.97	893.0
32.98	921.0
32.99	926.0
33.0	909.0
33.01	910.0
33.02	883.0
33.03	875.0
33.04	922.0
33.05	916.0
33.06	899.0
33.07	873.0
33.08	884.0
33.09	907.0
33.1	925.0
33.11	901.0
33.12	865.0
33.13	880.0
33.14	924.0
33.15	897.0
33.16	884.0
33.17	914.0
33.18	914.0
33.19	932.0
33.2	906.0
33.21	925.0
33.22	914.0
33.23	880.0
33.24	924.0
33.25	896.0
33.26	923.0
33.27	902.0
33.28	900.0
33.29	926.0
33.3	931.0
33.31	918.0
33.32	936.0
33.33	914.0
33.34	892.0
33.35	912.0
33.36	927.0
33.37	955.0
33.38	905.0
33.39	893.0
33.4	904.0
33.41	893.0
33.42	884.0
33.43	889.0
33.44	889.0
33.45	902.0
33.46	920.0
33.47	903.0
33.48	875.0
33.49	864.0
33.5	867.0
33.51	908.0
33.52	916.0
33.53	891.0
33.54	885.0
33.55	912.0
33.56	917.0
33.57	896.0
33.58	919.0
33.59	934.0
33.6	904.0
33.61	934.0
33.62	906.0
33.63	903.0
33.64	943.0
33.65	947.0
33.66	932.0
33.67	925.0
33.68	911.0
33.69	929.0
33.7	937.0
33.71	898.0
33.72	926.0
33.73	941.0
33.74	907.0
33.75	893.0
33.76	890.0
33.77	919.0
33.78	941.0
33.79	914.0
33.8	937.0
33.81	965.0
33.82	930.0
33.83	913.0
33.84	932.0
33.85	967.0
33.86	963.0
33.87	954.0
33.88	931.0
33.89	889.0
33.9	893.0
33.91	941.0
33.92	917.0
33.93	908.0
33.94	906.0
33.95	895.0
33.96	919.0
33.97	918.0
33.98	921.0
33.99	923.0
34.0	913.0
34.01	913.0
34.02	909.0
34.03	886.0
34.04	871.0
34.05	913.0
34.06	893.0
34.07	893.0
34.08	904.0
34.09	912.0
34.1	876.0
34.11	885.0
34.12	886.0
34.13	885.0
34.14	861.0
34.15	871.0
34.16	894.0
34.17	904.0
34.18	897.0
34.19	905.0
34.2	920.0
34.21	914.0
34.22	906.0
34.23	878.0
34.24	896.0
34.25	918.0
34.26	910.0
34.27	915.0
34.28	897.0
34.29	896.0
34.3	935.0
34.31	934.0
34.32	917.0
34.33	913.0
34.34	925.0
34.35	912.0
34.36	919.0
34.37	907.0
34.38	916.0
34.39	926.0
34.4	916.0
34.41	932.0
34.42	931.0
34.43	918.0
34.44	888.0
34.45	870.0
34.46	842.0
34.47	872.0
34.48	915.0
34.49	932.0
34.5	921.0
34.51	900.0
34.52	906.0
34.53	953.0
34.54	941.0
34.55	927.0
34.56	937.0
34.57	929.0
34.58	932.0
34.59	925.0
34.6	912.0
34.61	898.0
34.62	906.0
34.63	915.0
34.64	898.0
34.65	913.0
34.66	901.0
34.67	909.0
34.68	928.0
34.69	928.0
34.7	949.0
34.71	966.0
34.72	946.0
34.73	929.0
34.74	925.0
34.75	940.0
34.76	944.0
34.77	946.0
34.78	943.0
34.79	951.0
34.8	970.0
34.81	968.0
34.82	948.0
34.83	941.0
34.84	956.0
34.85	957.0
34.86	939.0
34.87	919.0
34.88	917.0
34.89	963.0
34.9	969.0
34.91	948.0
34.92	960.0
34.93	976.0
34.94	966.0
34.95	961.0
34.96	960.0
34.97	973.0
34.98	970.0
34.99	955.0
35.0	979.0
35.01	996.0
35.02	975.0
35.03	967.0
35.04	997.0
35.05	1022.0
35.06	1000.0
35.07	967.0
35.08	965.0
35.09	987.0
35.1	993.0
35.11	994.0
35.12	1001.0
35.13	1010.0
35.14	1023.0
35.15	1052.0
35.16	1041.0
35.17	1022.0
35.18	1030.0
35.19	1034.0
35.2	1028.0
35.21	1057.0
35.22	1104.0
35.23	1097.0
35.24	1099.0
35.25	1141.0
35.26	1146.0
35.27	1120.0
35.28	1117.0
35.29	1134.0
35.3	1174.0
35.31	1201.0
35.32	1223.0
35.33	1245.0
35.34	1249.0
35.35	1261.0
35.36	1318.0
35.37	1358.0
35.38	1351.0
35.39	1374.0
35.4	1428.0
35.41	1469.0
35.42	1521.0
35.43	1586.0
35.44	1667.0
35.45	1750.0
35.46	1874.0
35.47	1998.0
35.48	2164.0
35.49	2387.0
35.5	2613.0
35.51	2907.0
35.52	3348.0
35.53	3837.0
35.54	4396.0
35.55	5070.0
35.56	5782.0
35.57	6445.0
35.58	7089.0
35.59	7740.0
35.6	8246.0
35.61	8398.0
35.62	8249.0
35.63	7898.0
35.64	7370.0
35.65	6841.0
35.66	6423.0
35.67	6048.0
35.68	5708.0
35.69	5440.0
35.7	5207.0
35.71	4876.0
35.72	4481.0
35.73	4016.0
35.74	3489.0
35.75	3056.0
35.76	2652.0
35.77	2310.0
35.78	2053.0
35.79	1836.0
35.8	1675.0
35.81	1602.0
35.82	1535.0
35.83	1444.0
35.84	1397.0
35.85	1372.0
35.86	1320.0
35.87	1279.0
35.88	1265.0
35.89	1231.0
35.9	1209.0
35.91	1204.0
35.92	1190.0
35.93	1170.0
35.94	1151.0
35.95	1141.0
35.96	1140.0
35.97	1119.0
35.98	1095.0
35.99	1105.0
36.0	1085.0
36.01	1050.0
36.02	1049.0
36.03	1034.0
36.04	1042.0
36.05	1038.0
36.06	1015.0
36.07	1008.0
36.08	980.0
36.09	972.0
36.1	980.0
36.11	979.0
36.12	985.0
36.13	995.0
36.14	971.0
36.15	958.0
36.16	974.0
36.17	955.0
36.18	952.0
36.19	959.0
36.2	954.0
36.21	952.0
36.22	976.0
36.23	987.0
36.24	963.0
36.25	945.0
36.26	926.0
36.27	910.0
36.28	914.0
36.29	917.0
36.3	915.0
36.31	907.0
36.32	894.0
36.33	883.0
36.34	885.0
36.35	900.0
36.36	912.0
36.37	934.0
36.38	943.0
36.39	931.0
36.4	919.0
36.41	913.0
36.42	888.0
36.43	862.0
36.44	877.0
36.45	891.0
36.46	898.0
36.47	894.0
36.48	869.0
36.49	861.0
36.5	871.0
36.51	857.0
36.52	838.0
36.53	868.0
36.54	915.0
36.55	934.0
36.56	918.0
36.57	896.0
36.58	885.0
36.59	866.0
36.6	861.0
36.61	853.0
36.62	845.0
36.63	842.0
36.64	820.0
36.65	834.0
36.66	865.0
36.67	869.0
36.68	876.0
36.69	889.0
36.7	892.0
36.71	882.0
36.72	873.0
36.73	874.0
36.74	885.0
36.75	890.0
36.76	859.0
36.77	852.0
36.78	874.0
36.79	862.0
36.8	854.0
36.81	864.0
36.82	866.0
36.83	860.0
36.84	863.0
36.85	876.0
36.86	874.0
36.87	873.0
36.88	854.0
36.89	843.0
36.9	852.0
36.91	855.0
36.92	861.0
36.93	869.0
36.94	848.0
36.95	815.0
36.96	827.0
36.97	861.0
36.98	875.0
36.99	869.0
37.0	858.0
37.01	833.0
37.02	814.0
37.03	823.0
37.04	857.0
37.05	882.0
37.06	875.0
37.07	884.0
37.08	890.0
37.09	866.0
37.1	866.0
37.11	893.0
37.12	895.0
37.13	905.0
37.14	942.0
37.15	968.0
37.16	982.0
37.17	991.0
37.18	1003.0
37.19	1025.0
37.2	1077.0
37.21	1138.0
37.22	1184.0
37.23	1192.0
37.24	1220.0
37.25	1258.0
37.26	1220.0
37.27	1195.0
37.28	1211.0
37.29	1186.0
37.3	1140.0
37.31	1130.0
37.32	1134.0
37.33	1120.0
37.34	1083.0
37.35	1067.0
37.36	1061.0
37.37	1044.0
37.38	1001.0
37.39	970.0
37.4	965.0
37.41	947.0
37.42	932.0
37.43	932.0
37.44	879.0
37.45	827.0
37.46	815.0
37.47	848.0
37.48	870.0
37.49	850.0
37.5	858.0
37.51	883.0
37.52	875.0
37.53	852.0
37.54	838.0
37.55	859.0
37.56	857.0
37.57	852.0
37.58	860.0
37.59	863.0
37.6	867.0
37.61	877.0
37.62	852.0
37.63	804.0
37.64	798.0
37.65	818.0
37.66	850.0
37.67	860.0
37.68	838.0
37.69	830.0
37.7	851.0
37.71	872.0
37.72	851.0
37.73	817.0
37.74	825.0
37.75	836.0
37.76	856.0
37.77	862.0
37.78	838.0
37.79	828.0
37.8	834.0
37.81	838.0
37.82	843.0
37.83	845.0
37.84	836.0
37.85	814.0
37.86	804.0
37.87	825.0
37.88	822.0
37.89	828.0
37.9	831.0
37.91	846.0
37.92	839.0
37.93	839.0
37.94	830.0
37.95	815.0
37.96	819.0
37.97	813.0
37.98	832.0
37.99	838.0
38.0	836.0
38.01	817.0
38.02	799.0
38.03	808.0
38.04	809.0
38.05	795.0
38.06	798.0
38.07	811.0
38.08	811.0
38.09	820.0
38.1	831.0
38.11	827.0
38.12	827.0
38.13	815.0
38.14	793.0
38.15	813.0
38.16	820.0
38.17	801.0
38.18	800.0
38.19	838.0
38.2	872.0
38.21	857.0
38.22	828.0
38.23	849.0
38.24	858.0
38.25	841.0
38.26	824.0
38.27	809.0
38.28	817.0
38.29	816.0
38.3	828.0
38.31	835.0
38.32	835.0
38.33	808.0
38.34	820.0
38.35	837.0
38.36	855.0
38.37	876.0
38.38	852.0
38.39	832.0
38.4	823.0
38.41	808.0
38.42	813.0
38.43	828.0
38.44	832.0
38.45	819.0
38.46	794.0
38.47	803.0
38.48	811.0
38.49	815.0
38.5	824.0
38.51	826.0
38.52	823.0
38.53	836.0
38.54	840.0
38.55	841.0
38.56	820.0
38.57	831.0
38.58	821.0
38.59	822.0
38.6	806.0
38.61	825.0
38.62	817.0
38.63	805.0
38.64	797.0
38.65	814.0
38.66	831.0
38.67	848.0
38.68	842.0
38.69	801.0
38.7	823.0
38.71	817.0
38.72	806.0
38.73	818.0
38.74	806.0
38.75	809.0
38.76	825.0
38.77	808.0
38.78	785.0
38.79	793.0
38.8	820.0
38.81	821.0
38.82	830.0
38.83	843.0
38.84	832.0
38.85	817.0
38.86	830.0
38.87	817.0
38.88	827.0
38.89	823.0
38.9	800.0
38.91	824.0
38.92	832.0
38.93	836.0
38.94	816.0
38.95	790.0
38.96	775.0
38.97	788.0
38.98	768.0
38.99	760.0
39.0	789.0
39.01	810.0
39.02	810.0
39.03	810.0
39.04	800.0
39.05	783.0
39.06	783.0
39.07	812.0
39.08	838.0
39.09	823.0
39.1	815.0
39.11	806.0
39.12	798.0
39.13	807.0
39.14	823.0
39.15	828.0
39.16	835.0
39.17	815.0
39.18	793.0
39.19	824.0
39.2	846.0
39.21	816.0
39.22	791.0
39.23	770.0
39.24	777.0
39.25	782.0
39.26	772.0
39.27	771.0
39.28	758.0
39.29	774.0
39.3	809.0
39.31	776.0
39.32	780.0
39.33	818.0
39.34	810.0
39.35	786.0
39.36	784.0
39.37	773.0
39.38	780.0
39.39	770.0
39.4	794.0
39.41	799.0
39.42	784.0
39.43	826.0
39.44	811.0
39.45	801.0
39.46	808.0
39.47	815.0
39.48	812.0
39.49	801.0
39.5	798.0
39.51	804.0
39.52	808.0
39.53	790.0
39.54	791.0
39.55	772.0
39.56	758.0
39.57	780.0
39.58	788.0
39.59	800.0
39.6	804.0
39.61	803.0
39.62	772.0
39.63	766.0
39.64	773.0
39.65	781.0
39.66	788.0
39.67	776.0
39.68	766.0
39.69	764.0
39.7	766.0
39.71	768.0
39.72	763.0
39.73	753.0
39.74	776.0
39.75	791.0
39.76	773.0
39.77	790.0
39.78	787.0
39.79	797.0
39.8	808.0
39.81	795.0
39.82	816.0
39.83	782.0
39.84	772.0
39.85	782.0
39.86	799.0
39.87	785.0
39.88	784.0
39.89	795.0
39.9	793.0
39.91	782.0
39.92	781.0
39.93	783.0
39.94	767.0
39.95	767.0
39.96	775.0
39.97	766.0
39.98	794.0
39.99	809.0
40.0	781.0
40.01	808.0
40.02	782.0
40.03	778.0
40.04	750.0
40.05	780.0
40.06	763.0
40.07	764.0
40.08	780.0
40.09	796.0
40.1	801.0
40.11	801.0
40.12	812.0
40.13	787.0
40.14	786.0
40.15	801.0
40.16	805.0
40.17	800.0
40.18	781.0
40.19	799.0
40.2	777.0
40.21	778.0
40.22	767.0
40.23	804.0
40.24	821.0
40.25	801.0
40.26	838.0
40.27	810.0
40.28	801.0
40.29	825.0
40.3	857.0
40.31	820.0
40.32	805.0
40.33	793.0
40.34	811.0
40.35	793.0
40.36	768.0
40.37	781.0
40.38	776.0
40.39	762.0
40.4	785.0
40.41	821.0
40.42	809.0
40.43	772.0
40.44	764.0
40.45	787.0
40.46	749.0
40.47	780.0
40.48	773.0
40.49	750.0
40.5	771.0
40.51	778.0
40.52	788.0
40.53	787.0
40.54	774.0
40.55	777.0
40.56	780.0
40.57	792.0
40.58	822.0
40.59	825.0
40.6	802.0
40.61	795.0
40.62	764.0
40.63	735.0
40.64	768.0
40.65	746.0
40.66	746.0
40.67	756.0
40.68	767.0
40.69	756.0
40.7	767.0
40.71	776.0
40.72	769.0
40.73	785.0
40.74	778.0
40.75	760.0
40.76	763.0
40.77	778.0
40.78	771.0
40.79	779.0
40.8	789.0
40.81	766.0
40.82	772.0
40.83	775.0
40.84	733.0
40.85	775.0
40.86	776.0
40.87	805.0
40.88	802.0
40.89	800.0
40.9	778.0
40.91	752.0
40.92	781.0
40.93	756.0
40.94	752.0
40.95	762.0
40.96	756.0
40.97	751.0
40.98	754.0
40.99	751.0
41.0	744.0
41.01	767.0
41.02	748.0
41.03	753.0
41.04	720.0
41.05	729.0
41.06	725.0
41.07	745.0
41.08	728.0
41.09	782.0
41.1	759.0
41.11	754.0
41.12	795.0
41.13	757.0
41.14	780.0
41.15	779.0
41.16	800.0
41.17	757.0
41.18	766.0
41.19	765.0
41.2	765.0
41.21	738.0
41.22	741.0
41.23	738.0
41.24	785.0
41.25	807.0
41.26	805.0
41.27	770.0
41.28	822.0
41.29	770.0
41.3	760.0
41.31	765.0
41.32	777.0
41.33	788.0
41.34	761.0
41.35	752.0
41.36	761.0
41.37	754.0
41.38	775.0
41.39	787.0
41.4	788.0
41.41	755.0
41.42	760.0
41.43	757.0
41.44	772.0
41.45	737.0
41.46	764.0
41.47	754.0
41.48	764.0
41.49	741.0
41.5	761.0
41.51	767.0
41.52	775.0
41.53	761.0
41.54	775.0
41.55	743.0
41.56	789.0
41.57	760.0
41.58	787.0
41.59	800.0
41.6	769.0
41.61	742.0
41.62	758.0
41.63	787.0
41.64	791.0
41.65	777.0
41.66	748.0
41.67	758.0
41.68	794.0
41.69	784.0
41.7	795.0
41.71	755.0
41.72	771.0
41.73	791.0
41.74	815.0
41.75	793.0
41.76	758.0
41.77	761.0
41.78	788.0
41.79	803.0
41.8	795.0
41.81	771.0
41.82	756.0
41.83	780.0
41.84	788.0
41.85	784.0
41.86	821.0
41.87	803.0
41.88	803.0
41.89	817.0
41.9	809.0
41.91	762.0
41.92	807.0
41.93	777.0
41.94	720.0
41.95	779.0
41.96	798.0
41.97	796.0
41.98	813.0
41.99	806.0
42.0	805.0
42.01	821.0
42.02	804.0
42.03	787.0
42.04	824.0
42.05	781.0
42.06	746.0
42.07	793.0
42.08	788.0
42.09	806.0
42.1	805.0
42.11	794.0
42.12	800.0
42.13	800.0
42.14	783.0
42.15	780.0
42.16	773.0
42.17	768.0
42.18	794.0
42.19	813.0
42.2	817.0
42.21	832.0
42.22	816.0
42.23	789.0
42.24	786.0
42.25	776.0
42.26	791.0
42.27	778.0
42.28	748.0
42.29	756.0
42.3	772.0
42.31	786.0
42.32	830.0
42.33	811.0
42.34	804.0
42.35	812.0
42.36	799.0
42.37	816.0
42.38	852.0
42.39	823.0
42.4	823.0
42.41	821.0
42.42	814.0
42.43	837.0
42.44	797.0
42.45	788.0
42.46	804.0
42.47	832.0
42.48	860.0
42.49	852.0
42.5	837.0
42.51	859.0
42.52	873.0
42.53	852.0
42.54	812.0
42.55	869.0
42.56	840.0
42.57	880.0
42.58	861.0
42.59	864.0
42.6	826.0
42.61	859.0
42.62	841.0
42.63	856.0
42.64	883.0
42.65	882.0
42.66	864.0
42.67	854.0
42.68	867.0
42.69	833.0
42.7	868.0
42.71	865.0
42.72	869.0
42.73	882.0
42.74	909.0
42.75	897.0
42.76	920.0
42.77	938.0
42.78	932.0
42.79	939.0
42.8	918.0
42.81	945.0
42.82	981.0
42.83	927.0
42.84	958.0
42.85	980.0
42.86	955.0
42.87	940.0
42.88	937.0
42.89	957.0
42.9	1005.0
42.91	1040.0
42.92	1059.0
42.93	1031.0
42.94	1043.0
42.95	1023.0
42.96	1037.0
42.97	1073.0
42.98	1057.0
42.99	1030.0
43.0	1087.0
43.01	1138.0
43.02	1116.0
43.03	1132.0
43.04	1151.0
43.05	1201.0
43.06	1233.0
43.07	1266.0
43.08	1297.0
43.09	1360.0
43.1	1403.0
43.11	1461.0
43.12	1564.0
43.13	1588.0
43.14	1749.0
43.15	1981.0
43.16	2140.0
43.17	2321.0
43.18	2580.0
43.19	2901.0
43.2	3350.0
43.21	3826.0
43.22	4220.0
43.23	4748.0
43.24	5418.0
43.25	5949.0
43.26	6251.0
43.27	6542.0
43.28	6580.0
43.29	6331.0
43.3	6087.0
43.31	5742.0
43.32	5334.0
43.33	5049.0
43.34	4724.0
43.35	4552.0
43.36	4435.0
43.37	4347.0
43.38	4303.0
43.39	4143.0
43.4	3904.0
43.41	3699.0
43.42	3435.0
43.43	3070.0
43.44	2732.0
43.45	2376.0
43.46	2117.0
43.47	1843.0
43.48	1706.0
43.49	1620.0
43.5	1525.0
43.51	1476.0
43.52	1411.0
43.53	1322.0
43.54	1278.0
43.55	1260.0
43.56	1239.0
43.57	1189.0
43.58	1150.0
43.59	1156.0
43.6	1119.0
43.61	1110.0
43.62	1081.0
43.63	1049.0
43.64	1082.0
43.65	1113.0
43.66	1060.0
43.67	1034.0
43.68	1049.0
43.69	1046.0
43.7	1007.0
43.71	1006.0
43.72	997.0
43.73	997.0
43.74	1005.0
43.75	956.0
43.76	955.0
43.77	938.0
43.78	932.0
43.79	921.0
43.8	902.0
43.81	913.0
43.82	924.0
43.83	905.0
43.84	923.0
43.85	908.0
43.86	908.0
43.87	898.0
43.88	894.0
43.89	889.0
43.9	890.0
43.91	905.0
43.92	887.0
43.93	868.0
43.94	854.0
43.95	843.0
43.96	855.0
43.97	893.0
43.98	894.0
43.99	883.0
44.0	850.0
44.01	809.0
44.02	843.0
44.03	821.0
44.04	839.0
44.05	844.0
44.06	840.0
44.07	825.0
44.08	875.0
44.09	888.0
44.1	837.0
44.11	827.0
44.12	862.0
44.13	861.0
44.14	848.0
44.15	840.0
44.16	841.0
44.17	828.0
44.18	838.0
44.19	828.0
44.2	813.0
44.21	813.0
44.22	818.0
44.23	822.0
44.24	819.0
44.25	833.0
44.26	879.0
44.27	817.0
44.28	798.0
44.29	818.0
44.3	815.0
44.31	782.0
44.32	787.0
44.33	799.0
44.34	787.0
44.35	797.0
44.36	801.0
44.37	813.0
44.38	834.0
44.39	814.0
44.4	802.0
44.41	772.0
44.42	780.0
44.43	797.0
44.44	791.0
44.45	787.0
44.46	786.0
44.47	796.0
44.48	791.0
44.49	810.0
44.5	795.0
44.51	802.0
44.52	790.0
44.53	807.0
44.54	794.0
44.55	796.0
44.56	810.0
44.57	802.0
44.58	801.0
44.59	778.0
44.6	772.0
44.61	777.0
44.62	787.0
44.63	797.0
44.64	773.0
44.65	803.0
44.66	781.0
44.67	793.0
44.68	763.0
44.69	798.0
44.7	794.0
44.71	799.0
44.72	795.0
44.73	803.0
44.74	783.0
44.75	732.0
44.76	731.0
44.77	755.0
44.78	766.0
44.79	778.0
44.8	792.0
44.81	757.0
44.82	747.0
44.83	784.0
44.84	765.0
44.85	744.0
44.86	772.0
44.87	794.0
44.88	764.0
44.89	786.0
44.9	792.0
44.91	800.0
44.92	789.0
44.93	811.0
44.94	779.0
44.95	765.0
44.96	770.0
44.97	796.0
44.98	790.0
44.99	774.0
45.0	742.0
45.01	751.0
45.02	749.0
45.03	759.0
45.04	774.0
45.05	778.0
45.06	762.0
45.07	779.0
45.08	790.0
45.09	800.0
45.1	793.0
45.11	786.0
45.12	776.0
45.13	771.0
45.14	768.0
45.15	732.0
45.16	761.0
45.17	775.0
45.18	777.0
45.19	773.0
45.2	771.0
45.21	751.0
45.22	773.0
45.23	798.0
45.24	780.0
45.25	763.0
45.26	774.0
45.27	805.0
45.28	763.0
45.29	756.0
45.3	790.0
45.31	798.0
45.32	800.0
45.33	776.0
45.34	764.0
45.35	780.0
45.36	783.0
45.37	755.0
45.38	772.0
45.39	806.0
45.4	778.0
45.41	744.0
45.42	739.0
45.43	752.0
45.44	747.0
45.45	770.0
45.46	772.0
45.47	777.0
45.48	781.0
45.49	779.0
45.5	773.0
45.51	734.0
45.52	716.0
45.53	750.0
45.54	751.0
45.55	755.0
45.56	758.0
45.57	759.0
45.58	749.0
45.59	732.0
45.6	759.0
45.61	778.0
45.62	773.0
45.63	766.0
45.64	778.0
45.65	770.0
45.66	742.0
45.67	770.0
45.68	783.0
45.69	751.0
45.7	748.0
45.71	768.0
45.72	775.0
45.73	765.0
45.74	763.0
45.75	789.0
45.76	783.0
45.77	773.0
45.78	764.0
45.79	766.0
45.8	777.0
45.81	793.0
45.82	777.0
45.83	775.0
45.84	784.0
45.85	782.0
45.86	781.0
45.87	757.0
45.88	752.0
45.89	763.0
45.9	771.0
45.91	779.0
45.92	751.0
45.93	776.0
45.94	784.0
45.95	767.0
45.96	739.0
45.97	735.0
45.98	738.0
45.99	756.0
46.0	781.0
46.01	776.0
46.02	782.0
46.03	782.0
46.04	759.0
46.05	757.0
46.06	792.0
46.07	776.0
46.08	766.0
46.09	766.0
46.1	744.0
46.11	744.0
46.12	775.0
46.13	755.0
46.14	759.0
46.15	765.0
46.16	731.0
46.17	745.0
46.18	787.0
46.19	754.0
46.2	748.0
46.21	740.0
46.22	742.0
46.23	739.0
46.24	739.0
46.25	736.0
46.26	710.0
46.27	713.0
46.28	744.0
46.29	758.0
46.3	739.0
46.31	741.0
46.32	750.0
46.33	743.0
46.34	764.0
46.35	738.0
46.36	749.0
46.37	742.0
46.38	728.0
46.39	738.0
46.4	715.0
46.41	718.0
46.42	736.0
46.43	744.0
46.44	745.0
46.45	745.0
46.46	733.0
46.47	734.0
46.48	749.0
46.49	755.0
46.5	756.0
46.51	767.0
46.52	754.0
46.53	744.0
46.54	769.0
46.55	767.0
46.56	755.0
46.57	751.0
46.58	713.0
46.59	717.0
46.6	735.0
46.61	736.0
46.62	752.0
46.63	755.0
46.64	755.0
46.65	748.0
46.66	747.0
46.67	750.0
46.68	752.0
46.69	763.0
46.7	764.0
46.71	733.0
46.72	712.0
46.73	722.0
46.74	750.0
46.75	752.0
46.76	752.0
46.77	743.0
46.78	747.0
46.79	761.0
46.8	740.0
46.81	736.0
46.82	750.0
46.83	759.0
46.84	750.0
46.85	742.0
46.86	762.0
46.87	759.0
46.88	743.0
46.89	759.0
46.9	774.0
46.91	764.0
46.92	745.0
46.93	723.0
46.94	732.0
46.95	749.0
46.96	757.0
46.97	760.0
46.98	751.0
46.99	745.0
47.0	741.0
47.01	746.0
47.02	752.0
47.03	739.0
47.04	756.0
47.05	761.0
47.06	763.0
47.07	762.0
47.08	773.0
47.09	765.0
47.1	747.0
47.11	780.0
47.12	795.0
47.13	756.0
47.14	766.0
47.15	770.0
47.16	769.0
47.17	796.0
47.18	767.0
47.19	746.0
47.2	769.0
47.21	776.0
47.22	768.0
47.23	777.0
47.24	789.0
47.25	799.0
47.26	832.0
47.27	849.0
47.28	839.0
47.29	862.0
47.3	873.0
47.31	902.0
47.32	946.0
47.33	968.0
47.34	989.0
47.35	1027.0
47.36	1064.0
47.37	1082.0
47.38	1083.0
47.39	1090.0
47.4	1085.0
47.41	1074.0
47.42	1029.0
47.43	993.0
47.44	984.0
47.45	971.0
47.46	965.0
47.47	970.0
47.48	973.0
47.49	960.0
47.5	965.0
47.51	960.0
47.52	937.0
47.53	922.0
47.54	917.0
47.55	905.0
47.56	864.0
47.57	822.0
47.58	811.0
47.59	803.0
47.6	816.0
47.61	807.0
47.62	808.0
47.63	789.0
47.64	789.0
47.65	814.0
47.66	808.0
47.67	798.0
47.68	783.0
47.69	772.0
47.7	774.0
47.71	770.0
47.72	770.0
47.73	764.0
47.74	766.0
47.75	789.0
47.76	792.0
47.77	765.0
47.78	758.0
47.79	789.0
47.8	794.0
47.81	787.0
47.82	769.0
47.83	780.0
47.84	787.0
47.85	774.0
47.86	741.0
47.87	747.0
47.88	762.0
47.89	780.0
47.9	782.0
47.91	761.0
47.92	743.0
47.93	739.0
47.94	751.0
47.95	762.0
47.96	753.0
47.97	755.0
47.98	763.0
47.99	765.0
48.0	763.0
48.01	751.0
48.02	761.0
48.03	764.0
48.04	728.0
48.05	713.0
48.06	741.0
48.07	745.0
48.08	741.0
48.09	742.0
48.1	742.0
48.11	726.0
48.12	712.0
48.13	719.0
48.14	750.0
48.15	762.0
48.16	746.0
48.17	725.0
48.18	732.0
48.19	756.0
48.2	761.0
48.21	760.0
48.22	751.0
48.23	744.0
48.24	756.0
48.25	775.0
48.26	774.0
48.27	763.0
48.28	741.0
48.29	737.0
48.3	732.0
48.31	738.0
48.32	756.0
48.33	754.0
48.34	756.0
48.35	746.0
48.36	744.0
48.37	748.0
48.38	740.0
48.39	747.0
48.4	758.0
48.41	756.0
48.42	740.0
48.43	733.0
48.44	726.0
48.45	715.0
48.46	722.0
48.47	748.0
48.48	744.0
48.49	721.0
48.5	718.0
48.51	757.0
48.52	758.0
48.53	725.0
48.54	714.0
48.55	727.0
48.56	727.0
48.57	720.0
48.58	721.0
48.59	712.0
48.6	708.0
48.61	709.0
48.62	715.0
48.63	736.0
48.64	740.0
48.65	740.0
48.66	731.0
48.67	702.0
48.68	702.0
48.69	721.0
48.7	722.0
48.71	720.0
48.72	740.0
48.73	738.0
48.74	730.0
48.75	730.0
48.76	748.0
48.77	742.0
48.78	725.0
48.79	718.0
48.8	718.0
48.81	734.0
48.82	741.0
48.83	744.0
48.84	736.0
48.85	718.0
48.86	713.0
48.87	732.0
48.88	743.0
48.89	729.0
48.9	734.0
48.91	733.0
48.92	752.0
48.93	751.0
48.94	727.0
48.95	730.0
48.96	746.0
48.97	747.0
48.98	746.0
48.99	739.0
49.0	729.0
49.01	742.0
49.02	743.0
49.03	741.0
49.04	760.0
49.05	739.0
49.06	728.0
49.07	732.0
49.08	720.0
49.09	711.0
49.1	708.0
49.11	740.0
49.12	753.0
49.13	745.0
49.14	734.0
49.15	740.0
49.16	723.0
49.17	703.0
49.18	706.0
49.19	731.0
49.2	753.0
49.21	738.0
49.22	718.0
49.23	733.0
49.24	747.0
49.25	733.0
49.26	721.0
49.27	723.0
49.28	747.0
49.29	752.0
49.3	731.0
49.31	743.0
49.32	745.0
49.33	718.0
49.34	729.0
49.35	763.0
49.36	762.0
49.37	756.0
49.38	751.0
49.39	745.0
49.4	766.0
49.41	789.0
49.42	774.0
49.43	737.0
49.44	721.0
49.45	739.0
49.46	760.0
49.47	758.0
49.48	747.0
49.49	740.0
49.5	726.0
49.51	731.0
49.52	743.0
49.53	747.0
49.54	758.0
49.55	760.0
49.56	741.0
49.57	745.0
49.58	765.0
49.59	780.0
49.6	777.0
49.61	771.0
49.62	765.0
49.63	769.0
49.64	785.0
49.65	775.0
49.66	760.0
49.67	757.0
49.68	748.0
49.69	738.0
49.7	766.0
49.71	817.0
49.72	822.0
49.73	805.0
49.74	779.0
49.75	772.0
49.76	770.0
49.77	748.0
49.78	757.0
49.79	776.0
49.8	765.0
49.81	761.0
49.82	746.0
49.83	742.0
49.84	782.0
49.85	808.0
49.86	801.0
49.87	779.0
49.88	764.0
49.89	762.0
49.9	771.0
49.91	795.0
49.92	802.0
49.93	789.0
49.94	779.0
49.95	764.0
49.96	771.0
49.97	783.0
49.98	777.0
49.99	771.0
50.0	779.0
50.01	787.0
50.02	769.0
50.03	750.0
50.04	756.0
50.05	764.0
50.06	759.0
50.07	752.0
50.08	762.0
50.09	778.0
50.1	770.0
50.11	733.0
50.12	725.0
50.13	750.0
50.14	755.0
50.15	741.0
50.16	753.0
50.17	755.0
50.18	736.0
50.19	738.0
50.2	767.0
50.21	771.0
50.22	737.0
50.23	739.0
50.24	752.0
50.25	751.0
50.26	754.0
50.27	745.0
50.28	742.0
50.29	745.0
50.3	752.0
50.31	773.0
50.32	765.0
50.33	757.0
50.34	759.0
50.35	745.0
50.36	752.0
50.37	754.0
50.38	752.0
50.39	769.0
50.4	774.0
50.41	745.0
50.42	720.0
50.43	737.0
50.44	745.0
50.45	735.0
50.46	731.0
50.47	710.0
50.48	702.0
50.49	729.0
50.5	746.0
50.51	737.0
50.52	723.0
50.53	718.0
50.54	719.0
50.55	734.0
50.56	749.0
50.57	740.0
50.58	717.0
50.59	714.0
50.6	721.0
50.61	730.0
50.62	732.0
50.63	712.0
50.64	719.0
50.65	732.0
50.66	727.0
50.67	742.0
50.68	760.0
50.69	755.0
50.7	725.0
50.71	719.0
50.72	728.0
50.73	736.0
50.74	756.0
50.75	739.0
50.76	721.0
50.77	724.0
50.78	713.0
50.79	718.0
50.8	741.0
50.81	719.0
50.82	692.0
50.83	716.0
50.84	742.0
50.85	746.0
50.86	740.0
50.87	736.0
50.88	734.0
50.89	727.0
50.9	711.0
50.91	696.0
50.92	703.0
50.93	712.0
50.94	710.0
50.95	711.0
50.96	710.0
50.97	708.0
50.98	721.0
50.99	733.0
51.0	734.0
51.01	732.0
51.02	730.0
51.03	716.0
51.04	720.0
51.05	728.0
51.06	715.0
51.07	709.0
51.08	693.0
51.09	675.0
51.1	703.0
51.11	724.0
51.12	736.0
51.13	760.0
51.14	753.0
51.15	710.0
51.16	698.0
51.17	717.0
51.18	717.0
51.19	727.0
51.2	751.0
51.21	736.0
51.22	705.0
51.23	719.0
51.24	729.0
51.25	732.0
51.26	727.0
51.27	723.0
51.28	736.0
51.29	733.0
51.3	715.0
51.31	712.0
51.32	709.0
51.33	699.0
51.34	699.0
51.35	728.0
51.36	760.0
51.37	747.0
51.38	724.0
51.39	710.0
51.4	710.0
51.41	709.0
51.42	687.0
51.43	701.0
51.44	725.0
51.45	714.0
51.46	704.0
51.47	712.0
51.48	727.0
51.49	728.0
51.5	712.0
51.51	691.0
51.52	689.0
51.53	705.0
51.54	716.0
51.55	728.0
51.56	736.0
51.57	735.0
51.58	722.0
51.59	719.0
51.6	732.0
51.61	722.0
51.62	706.0
51.63	709.0
51.64	719.0
51.65	728.0
51.66	744.0
51.67	750.0
51.68	760.0
51.69	764.0
51.7	741.0
51.71	718.0
51.72	724.0
51.73	725.0
51.74	708.0
51.75	706.0
51.76	719.0
51.77	723.0
51.78	720.0
51.79	709.0
51.8	714.0
51.81	712.0
51.82	727.0
51.83	769.0
51.84	756.0
51.85	720.0
51.86	728.0
51.87	743.0
51.88	735.0
51.89	701.0
51.9	681.0
51.91	695.0
51.92	701.0
51.93	707.0
51.94	715.0
51.95	701.0
51.96	700.0
51.97	711.0
51.98	709.0
51.99	700.0
52.0	691.0
52.01	696.0
52.02	714.0
52.03	725.0
52.04	731.0
52.05	725.0
52.06	719.0
52.07	729.0
52.08	727.0
52.09	715.0
52.1	731.0
52.11	764.0
52.12	749.0
52.13	736.0
52.14	732.0
52.15	733.0
52.16	730.0
52.17	707.0
52.18	703.0
52.19	705.0
52.2	711.0
52.21	717.0
52.22	714.0
52.23	701.0
52.24	686.0
52.25	701.0
52.26	697.0
52.27	685.0
52.28	697.0
52.29	712.0
52.3	721.0
52.31	737.0
52.32	753.0
52.33	729.0
52.34	719.0
52.35	719.0
52.36	711.0
52.37	717.0
52.38	722.0
52.39	718.0
52.4	709.0
52.41	725.0
52.42	761.0
52.43	780.0
52.44	740.0
52.45	706.0
52.46	719.0
52.47	716.0
52.48	720.0
52.49	735.0
52.5	720.0
52.51	713.0
52.52	741.0
52.53	746.0
52.54	718.0
52.55	705.0
52.56	687.0
52.57	681.0
52.58	707.0
52.59	718.0
52.6	730.0
52.61	733.0
52.62	740.0
52.63	734.0
52.64	724.0
52.65	726.0
52.66	715.0
52.67	703.0
52.68	720.0
52.69	724.0
52.7	718.0
52.71	727.0
52.72	730.0
52.73	726.0
52.74	703.0
52.75	686.0
52.76	705.0
52.77	718.0
52.78	740.0
52.79	755.0
52.8	735.0
52.81	692.0
52.82	688.0
52.83	717.0
52.84	734.0
52.85	746.0
52.86	735.0
52.87	714.0
52.88	712.0
52.89	702.0
52.9	700.0
52.91	717.0
52.92	723.0
52.93	721.0
52.94	734.0
52.95	721.0
52.96	703.0
52.97	728.0
52.98	739.0
52.99	724.0
53.0	732.0
53.01	730.0
53.02	742.0
53.03	752.0
53.04	728.0
53.05	721.0
53.06	722.0
53.07	730.0
53.08	748.0
53.09	753.0
53.1	750.0
53.11	755.0
53.12	752.0
53.13	736.0
53.14	728.0
53.15	735.0
53.16	742.0
53.17	737.0
53.18	740.0
53.19	770.0
53.2	777.0
53.21	759.0
53.22	757.0
53.23	762.0
53.24	759.0
53.25	741.0
53.26	723.0
53.27	710.0
53.28	721.0
53.29	750.0
53.3	732.0
53.31	731.0
53.32	754.0
53.33	775.0
53.34	784.0
53.35	784.0
53.36	764.0
53.37	747.0
53.38	756.0
53.39	756.0
53.4	748.0
53.41	755.0
53.42	756.0
53.43	762.0
53.44	757.0
53.45	753.0
53.46	736.0
53.47	730.0
53.48	725.0
53.49	737.0
53.5	751.0
53.51	748.0
53.52	741.0
53.53	755.0
53.54	762.0
53.55	753.0
53.56	766.0
53.57	798.0
53.58	805.0
53.59	826.0
53.6	843.0
53.61	846.0
53.62	861.0
53.63	898.0
53.64	930.0
53.65	951.0
53.66	950.0
53.67	959.0
53.68	967.0
53.69	968.0
53.7	948.0
53.71	910.0
53.72	897.0
53.73	897.0
53.74	889.0
53.75	891.0
53.76	868.0
53.77	839.0
53.78	845.0
53.79	852.0
53.8	864.0
53.81	869.0
53.82	877.0
53.83	886.0
53.84	835.0
53.85	802.0
53.86	799.0
53.87	797.0
53.88	787.0
53.89	791.0
53.9	783.0
53.91	762.0
53.92	771.0
53.93	778.0
53.94	745.0
53.95	738.0
53.96	747.0
53.97	740.0
53.98	730.0
53.99	737.0
54.0	772.0
54.01	759.0
54.02	745.0
54.03	746.0
54.04	741.0
54.05	742.0
54.06	723.0
54.07	707.0
54.08	729.0
54.09	734.0
54.1	719.0
54.11	727.0
54.12	736.0
54.13	715.0
54.14	719.0
54.15	720.0
54.16	722.0
54.17	738.0
54.18	721.0
54.19	718.0
54.2	746.0
54.21	746.0
54.22	739.0
54.23	740.0
54.24	740.0
54.25	735.0
54.26	736.0
54.27	732.0
54.28	721.0
54.29	731.0
54.3	741.0
54.31	729.0
54.32	719.0
54.33	724.0
54.34	724.0
54.35	729.0
54.36	714.0
54.37	699.0
54.38	711.0
54.39	729.0
54.4	717.0
54.41	727.0
54.42	753.0
54.43	765.0
54.44	773.0
54.45	755.0
54.46	727.0
54.47	736.0
54.48	743.0
54.49	735.0
54.5	737.0
54.51	746.0
54.52	741.0
54.53	726.0
54.54	727.0
54.55	728.0
54.56	724.0
54.57	730.0
54.58	727.0
54.59	715.0
54.6	723.0
54.61	720.0
54.62	740.0
54.63	743.0
54.64	726.0
54.65	717.0
54.66	726.0
54.67	738.0
54.68	726.0
54.69	738.0
54.7	744.0
54.71	734.0
54.72	749.0
54.73	753.0
54.74	753.0
54.75	735.0
54.76	736.0
54.77	753.0
54.78	761.0
54.79	764.0
54.8	747.0
54.81	727.0
54.82	746.0
54.83	758.0
54.84	743.0
54.85	738.0
54.86	726.0
54.87	728.0
54.88	739.0
54.89	739.0
54.9	759.0
54.91	753.0
54.92	728.0
54.93	722.0
54.94	723.0
54.95	707.0
54.96	745.0
54.97	776.0
54.98	751.0
54.99	724.0
55.0	739.0
55.01	736.0
55.02	742.0
55.03	740.0
55.04	739.0
55.05	739.0
55.06	727.0
55.07	716.0
55.08	748.0
55.09	750.0
55.1	742.0
55.11	744.0
55.12	736.0
55.13	754.0
55.14	746.0
55.15	734.0
55.16	756.0
55.17	777.0
55.18	783.0
55.19	772.0
55.2	754.0
55.21	739.0
55.22	740.0
55.23	764.0
55.24	759.0
55.25	758.0
55.26	788.0
55.27	780.0
55.28	754.0
55.29	726.0
55.3	729.0
55.31	747.0
55.32	769.0
55.33	768.0
55.34	755.0
55.35	765.0
55.36	781.0
55.37	766.0
55.38	739.0
55.39	719.0
55.4	743.0
55.41	767.0
55.42	760.0
55.43	759.0
55.44	772.0
55.45	785.0
55.46	755.0
55.47	745.0
55.48	751.0
55.49	748.0
55.5	745.0
55.51	763.0
55.52	773.0
55.53	753.0
55.54	742.0
55.55	732.0
55.56	733.0
55.57	762.0
55.58	792.0
55.59	789.0
55.6	758.0
55.61	759.0
55.62	778.0
55.63	786.0
55.64	782.0
55.65	778.0
55.66	766.0
55.67	762.0
55.68	799.0
55.69	803.0
55.7	772.0
55.71	782.0
55.72	772.0
55.73	772.0
55.74	776.0
55.75	754.0
55.76	747.0
55.77	776.0
55.78	777.0
55.79	761.0
55.8	758.0
55.81	763.0
55.82	769.0
55.83	787.0
55.84	790.0
55.85	770.0
55.86	772.0
55.87	798.0
55.88	804.0
55.89	798.0
55.9	784.0
55.91	769.0
55.92	792.0
55.93	814.0
55.94	823.0
55.95	777.0
55.96	765.0
55.97	775.0
55.98	798.0
55.99	808.0
56.0	791.0
56.01	784.0
56.02	796.0
56.03	783.0
56.04	779.0
56.05	787.0
56.06	793.0
56.07	779.0
56.08	781.0
56.09	783.0
56.1	757.0
56.11	762.0
56.12	777.0
56.13	800.0
56.14	801.0
56.15	795.0
56.16	781.0
56.17	781.0
56.18	792.0
56.19	813.0
56.2	826.0
56.21	807.0
56.22	802.0
56.23	804.0
56.24	803.0
56.25	801.0
56.26	798.0
56.27	792.0
56.28	786.0
56.29	791.0
56.3	780.0
56.31	787.0
56.32	798.0
56.33	805.0
56.34	824.0
56.35	817.0
56.36	819.0
56.37	803.0
56.38	814.0
56.39	812.0
56.4	794.0
56.41	807.0
56.42	836.0
56.43	839.0
56.44	821.0
56.45	814.0
56.46	847.0
56.47	858.0
56.48	831.0
56.49	813.0
56.5	834.0
56.51	878.0
56.52	885.0
56.53	863.0
56.54	875.0
56.55	859.0
56.56	821.0
56.57	799.0
56.58	817.0
56.59	842.0
56.6	836.0
56.61	843.0
56.62	848.0
56.63	840.0
56.64	872.0
56.65	877.0
56.66	861.0
56.67	854.0
56.68	861.0
56.69	890.0
56.7	907.0
56.71	901.0
56.72	884.0
56.73	871.0
56.74	870.0
56.75	869.0
56.76	852.0
56.77	873.0
56.78	901.0
56.79	913.0
56.8	923.0
56.81	921.0
56.82	911.0
56.83	902.0
56.84	913.0
56.85	935.0
56.86	931.0
56.87	939.0
56.88	962.0
56.89	947.0
56.9	943.0
56.91	942.0
56.92	971.0
56.93	988.0
56.94	993.0
56.95	1001.0
56.96	975.0
56.97	996.0
56.98	998.0
56.99	1038.0
57.0	1059.0
57.01	1071.0
57.02	1050.0
57.03	1069.0
57.04	1104.0
57.05	1133.0
57.06	1180.0
57.07	1231.0
57.08	1272.0
57.09	1331.0
57.1	1432.0
57.11	1567.0
57.12	1701.0
57.13	1818.0
57.14	1991.0
57.15	2268.0
57.16	2513.0
57.17	2782.0
57.18	3076.0
57.19	3342.0
57.2	3563.0
57.21	3721.0
57.22	3828.0
57.23	3870.0
57.24	3724.0
57.25	3553.0
57.26	3399.0
57.27	3185.0
57.28	2999.0
57.29	2816.0
57.3	2633.0
57.31	2482.0
57.32	2413.0
57.33	2439.0
57.34	2522.0
57.35	2588.0
57.36	2566.0
57.37	2529.0
57.38	2566.0
57.39	2460.0
57.4	2378.0
57.41	2241.0
57.42	2098.0
57.43	1947.0
57.44	1827.0
57.45	1679.0
57.46	1519.0
57.47	1392.0
57.48	1292.0
57.49	1196.0
57.5	1157.0
57.51	1145.0
57.52	1119.0
57.53	1132.0
57.54	1109.0
57.55	1064.0
57.56	1011.0
57.57	996.0
57.58	989.0
57.59	960.0
57.6	959.0
57.61	974.0
57.62	949.0
57.63	929.0
57.64	928.0
57.65	936.0
57.66	954.0
57.67	942.0
57.68	935.0
57.69	934.0
57.7	913.0
57.71	888.0
57.72	893.0
57.73	900.0
57.74	889.0
57.75	890.0
57.76	888.0
57.77	885.0
57.78	850.0
57.79	824.0
57.8	864.0
57.81	861.0
57.82	853.0
57.83	844.0
57.84	844.0
57.85	840.0
57.86	857.0
57.87	844.0
57.88	815.0
57.89	812.0
57.9	793.0
57.91	783.0
57.92	802.0
57.93	821.0
57.94	833.0
57.95	835.0
57.96	829.0
57.97	835.0
57.98	817.0
57.99	835.0
58.0	830.0
58.01	837.0
58.02	816.0
58.03	794.0
58.04	799.0
58.05	805.0
58.06	800.0
58.07	800.0
58.08	805.0
58.09	815.0
58.1	802.0
58.11	785.0
58.12	767.0
58.13	774.0
58.14	785.0
58.15	760.0
58.16	770.0
58.17	805.0
58.18	785.0
58.19	755.0
58.2	760.0
58.21	754.0
58.22	775.0
58.23	777.0
58.24	786.0
58.25	770.0
58.26	771.0
58.27	753.0
58.28	771.0
58.29	766.0
58.3	763.0
58.31	768.0
58.32	794.0
58.33	793.0
58.34	792.0
58.35	771.0
58.36	781.0
58.37	786.0
58.38	753.0
58.39	760.0
58.4	758.0
58.41	773.0
58.42	769.0
58.43	753.0
58.44	759.0
58.45	746.0
58.46	723.0
58.47	743.0
58.48	762.0
58.49	735.0
58.5	725.0
58.51	735.0
58.52	754.0
58.53	770.0
58.54	779.0
58.55	798.0
58.56	789.0
58.57	784.0
58.58	767.0
58.59	734.0
58.6	741.0
58.61	740.0
58.62	755.0
58.63	732.0
58.64	738.0
58.65	768.0
58.66	760.0
58.67	776.0
58.68	774.0
58.69	773.0
58.7	763.0
58.71	746.0
58.72	739.0
58.73	744.0
58.74	768.0
58.75	774.0
58.76	759.0
58.77	764.0
58.78	777.0
58.79	782.0
58.8	763.0
58.81	762.0
58.82	760.0
58.83	771.0
58.84	751.0
58.85	742.0
58.86	753.0
58.87	771.0
58.88	757.0
58.89	743.0
58.9	773.0
58.91	798.0
58.92	763.0
58.93	725.0
58.94	762.0
58.95	792.0
58.96	778.0
58.97	774.0
58.98	773.0
58.99	774.0
59.0	771.0
59.01	773.0
59.02	778.0
59.03	769.0
59.04	784.0
59.05	793.0
59.06	788.0
59.07	778.0
59.08	811.0
59.09	791.0
59.1	787.0
59.11	781.0
59.12	768.0
59.13	785.0
59.14	806.0
59.15	823.0
59.16	817.0
59.17	789.0
59.18	799.0
59.19	789.0
59.2	779.0
59.21	768.0
59.22	766.0
59.23	801.0
59.24	786.0
59.25	762.0
59.26	787.0
59.27	797.0
59.28	801.0
59.29	835.0
59.3	830.0
59.31	794.0
59.32	771.0
59.33	785.0
59.34	805.0
59.35	793.0
59.36	794.0
59.37	784.0
59.38	777.0
59.39	781.0
59.4	781.0
59.41	772.0
59.42	774.0
59.43	789.0
59.44	795.0
59.45	798.0
59.46	798.0
59.47	792.0
59.48	800.0
59.49	774.0
59.5	776.0
59.51	796.0
59.52	813.0
59.53	793.0
59.54	805.0
59.55	791.0
59.56	785.0
59.57	809.0
59.58	784.0
59.59	781.0
59.6	782.0
59.61	780.0
59.62	790.0
59.63	787.0
59.64	760.0
59.65	760.0
59.66	753.0
59.67	770.0
59.68	779.0
59.69	760.0
59.7	777.0
59.71	799.0
59.72	780.0
59.73	766.0
59.74	727.0
59.75	738.0
59.76	763.0
59.77	779.0
59.78	753.0
59.79	748.0
59.8	768.0
59.81	782.0
59.82	777.0
59.83	759.0
59.84	756.0
59.85	761.0
59.86	751.0
59.87	730.0
59.88	719.0
59.89	747.0
59.9	764.0
59.91	754.0
59.92	764.0
59.93	812.0
59.94	784.0
59.95	724.0
59.96	747.0
59.97	758.0
59.98	738.0
59.99	742.0
60.0	728.0
60.01	737.0
60.02	763.0
60.03	746.0
60.04	746.0
60.05	744.0
60.06	761.0
60.07	752.0
60.08	755.0
60.09	788.0
60.1	776.0
60.11	758.0
60.12	743.0
60.13	760.0
60.14	776.0
60.15	781.0
60.16	755.0
60.17	761.0
60.18	797.0
60.19	788.0
60.2	778.0
60.21	782.0
60.22	748.0
60.23	724.0
60.24	732.0
60.25	775.0
60.26	765.0
60.27	761.0
60.28	782.0
60.29	799.0
60.3	814.0
60.31	798.0
60.32	776.0
60.33	759.0
60.34	771.0
60.35	790.0
60.36	786.0
60.37	759.0
60.38	787.0
60.39	776.0
60.4	764.0
60.41	785.0
60.42	763.0
60.43	773.0
60.44	779.0
60.45	779.0
60.46	785.0
60.47	758.0
60.48	761.0
60.49	784.0
60.5	788.0
60.51	791.0
60.52	797.0
60.53	800.0
60.54	803.0
60.55	807.0
60.56	785.0
60.57	793.0
60.58	818.0
60.59	811.0
60.6	792.0
60.61	799.0
60.62	801.0
60.63	793.0
60.64	798.0
60.65	807.0
60.66	765.0
60.67	771.0
60.68	787.0
60.69	776.0
60.7	801.0
60.71	806.0
60.72	785.0
60.73	809.0
60.74	790.0
60.75	778.0
60.76	796.0
60.77	789.0
60.78	812.0
60.79	799.0
60.8	799.0
60.81	792.0
60.82	789.0
60.83	773.0
60.84	768.0
60.85	757.0
60.86	745.0
60.87	767.0
60.88	781.0
60.89	811.0
60.9	803.0
60.91	777.0
60.92	753.0
60.93	744.0
60.94	745.0
60.95	796.0
60.96	802.0
60.97	784.0
60.98	791.0
60.99	812.0
61.0	785.0
61.01	792.0
61.02	768.0
61.03	785.0
61.04	766.0
61.05	773.0
61.06	759.0
61.07	765.0
61.08	799.0
61.09	793.0
61.1	775.0
61.11	787.0
61.12	797.0
61.13	787.0
61.14	777.0
61.15	783.0
61.16	772.0
61.17	780.0
61.18	760.0
61.19	757.0
61.2	756.0
61.21	752.0
61.22	737.0
61.23	759.0
61.24	773.0
61.25	749.0
61.26	784.0
61.27	797.0
61.28	771.0
61.29	762.0
61.3	759.0
61.31	759.0
61.32	732.0
61.33	733.0
61.34	765.0
61.35	825.0
61.36	803.0
61.37	770.0
61.38	781.0
61.39	783.0
61.4	756.0
61.41	749.0
61.42	767.0
61.43	775.0
61.44	765.0
61.45	757.0
61.46	746.0
61.47	779.0
61.48	792.0
61.49	802.0
61.5	786.0
61.51	751.0
61.52	773.0
61.53	775.0
61.54	774.0
61.55	759.0
61.56	762.0
61.57	765.0
61.58	787.0
61.59	821.0
61.6	788.0
61.61	788.0
61.62	757.0
61.63	772.0
61.64	788.0
61.65	795.0
61.66	771.0
61.67	796.0
61.68	825.0
61.69	839.0
61.7	819.0
61.71	795.0
61.72	796.0
61.73	792.0
61.74	783.0
61.75	764.0
61.76	773.0
61.77	792.0
61.78	797.0
61.79	758.0
61.8	747.0
61.81	750.0
61.82	737.0
61.83	756.0
61.84	771.0
61.85	784.0
61.86	828.0
61.87	839.0
61.88	817.0
61.89	799.0
61.9	806.0
61.91	787.0
61.92	778.0
61.93	805.0
61.94	807.0
61.95	792.0
61.96	814.0
61.97	823.0
61.98	848.0
61.99	847.0
62.0	863.0
62.01	850.0
62.02	833.0
62.03	851.0
62.04	849.0
62.05	840.0
62.06	855.0
62.07	850.0
62.08	840.0
62.09	801.0
62.1	838.0
62.11	863.0
62.12	881.0
62.13	869.0
62.14	873.0
62.15	878.0
62.16	902.0
62.17	884.0
62.18	896.0
62.19	905.0
62.2	884.0
62.21	874.0
62.22	876.0
62.23	919.0
62.24	929.0
62.25	913.0
62.26	933.0
62.27	927.0
62.28	909.0
62.29	901.0
62.3	883.0
62.31	916.0
62.32	943.0
62.33	959.0
62.34	951.0
62.35	948.0
62.36	967.0
62.37	981.0
62.38	998.0
62.39	991.0
62.4	1017.0
62.41	1060.0
62.42	1049.0
62.43	1037.0
62.44	1039.0
62.45	1047.0
62.46	1029.0
62.47	1043.0
62.48	1028.0
62.49	1098.0
62.5	1092.0
62.51	1096.0
62.52	1079.0
62.53	1115.0
62.54	1125.0
62.55	1138.0
62.56	1150.0
62.57	1159.0
62.58	1179.0
62.59	1185.0
62.6	1201.0
62.61	1245.0
62.62	1210.0
62.63	1218.0
62.64	1325.0
62.65	1352.0
62.66	1355.0
62.67	1403.0
62.68	1446.0
62.69	1515.0
62.7	1669.0
62.71	1785.0
62.72	1910.0
62.73	2146.0
62.74	2312.0
62.75	2546.0
62.76	2867.0
62.77	3221.0
62.78	3660.0
62.79	4076.0
62.8	4518.0
62.81	4873.0
62.82	5090.0
62.83	5276.0
62.84	5446.0
62.85	5409.0
62.86	5226.0
62.87	5048.0
62.88	4740.0
62.89	4296.0
62.9	3943.0
62.91	3674.0
62.92	3336.0
62.93	3157.0
62.94	3106.0
62.95	3118.0
62.96	3156.0
62.97	3222.0
62.98	3357.0
62.99	3338.0
63.0	3359.0
63.01	3458.0
63.02	3525.0
63.03	3417.0
63.04	3257.0
63.05	2991.0
63.06	2766.0
63.07	2543.0
63.08	2362.0
63.09	2089.0
63.1	1886.0
63.11	1810.0
63.12	1631.0
63.13	1569.0
63.14	1520.0
63.15	1433.0
63.16	1356.0
63.17	1332.0
63.18	1292.0
63.19	1246.0
63.2	1218.0
63.21	1217.0
63.22	1198.0
63.23	1155.0
63.24	1120.0
63.25	1132.0
63.26	1162.0
63.27	1114.0
63.28	1087.0
63.29	1081.0
63.3	1045.0
63.31	1030.0
63.32	1042.0
63.33	1063.0
63.34	1024.0
63.35	1006.0
63.36	1003.0
63.37	1011.0
63.38	1023.0
63.39	998.0
63.4	965.0
63.41	942.0
63.42	908.0
63.43	918.0
63.44	941.0
63.45	930.0
63.46	893.0
63.47	902.0
63.48	923.0
63.49	901.0
63.5	882.0
63.51	885.0
63.52	902.0
63.53	904.0
63.54	920.0
63.55	892.0
63.56	890.0
63.57	884.0
63.58	916.0
63.59	884.0
63.6	881.0
63.61	841.0
63.62	869.0
63.63	887.0
63.64	878.0
63.65	855.0
63.66	855.0
63.67	860.0
63.68	833.0
63.69	820.0
63.7	809.0
63.71	818.0
63.72	826.0
63.73	834.0
63.74	827.0
63.75	805.0
63.76	809.0
63.77	822.0
63.78	840.0
63.79	840.0
63.8	818.0
63.81	817.0
63.82	812.0
63.83	800.0
63.84	787.0
63.85	798.0
63.86	833.0
63.87	821.0
63.88	786.0
63.89	762.0
63.9	753.0
63.91	805.0
63.92	819.0
63.93	824.0
63.94	811.0
63.95	831.0
63.96	815.0
63.97	765.0
63.98	796.0
63.99	806.0
64.0	829.0
64.01	778.0
64.02	776.0
64.03	780.0
64.04	770.0
64.05	762.0
64.06	788.0
64.07	788.0
64.08	798.0
64.09	779.0
64.1	749.0
64.11	779.0
64.12	765.0
64.13	734.0
64.14	769.0
64.15	794.0
64.16	785.0
64.17	770.0
64.18	751.0
64.19	741.0
64.2	785.0
64.21	776.0
64.22	786.0
64.23	798.0
64.24	777.0
64.25	774.0
64.26	775.0
64.27	745.0
64.28	759.0
64.29	764.0
64.3	761.0
64.31	760.0
64.32	795.0
64.33	753.0
64.34	720.0
64.35	761.0
64.36	729.0
64.37	769.0
64.38	758.0
64.39	760.0
64.4	780.0
64.41	757.0
64.42	769.0
64.43	789.0
64.44	759.0
64.45	748.0
64.46	750.0
64.47	749.0
64.48	747.0
64.49	770.0
64.5	762.0
64.51	731.0
64.52	740.0
64.53	769.0
64.54	775.0
64.55	746.0
64.56	745.0
64.57	750.0
64.58	801.0
64.59	765.0
64.6	754.0
64.61	769.0
64.62	761.0
64.63	770.0
64.64	773.0
64.65	748.0
64.66	743.0
64.67	745.0
64.68	771.0
64.69	767.0
64.7	752.0
64.71	774.0
64.72	796.0
64.73	790.0
64.74	769.0
64.75	725.0
64.76	716.0
64.77	729.0
64.78	781.0
64.79	767.0
64.8	722.0
64.81	732.0
64.82	765.0
64.83	737.0
64.84	757.0
64.85	773.0
64.86	754.0
64.87	735.0
64.88	743.0
64.89	744.0
64.9	732.0
64.91	754.0
64.92	755.0
64.93	751.0
64.94	750.0
64.95	761.0
64.96	773.0
64.97	781.0
64.98	753.0
64.99	731.0
65.0	763.0
65.01	758.0
65.02	728.0
65.03	732.0
65.04	765.0
65.05	740.0
65.06	742.0
65.07	747.0
65.08	720.0
65.09	763.0
65.1	767.0
65.11	757.0
65.12	749.0
65.13	738.0
65.14	749.0
65.15	756.0
65.16	743.0
65.17	761.0
65.18	767.0
65.19	773.0
65.2	739.0
65.21	761.0
65.22	752.0
65.23	761.0
65.24	737.0
65.25	731.0
65.26	731.0
65.27	734.0
65.28	738.0
65.29	766.0
65.3	786.0
65.31	753.0
65.32	731.0
65.33	745.0
65.34	741.0
65.35	721.0
65.36	747.0
65.37	783.0
65.38	753.0
65.39	783.0
65.4	763.0
65.41	713.0
65.42	746.0
65.43	804.0
65.44	777.0
65.45	743.0
65.46	768.0
65.47	751.0
65.48	754.0
65.49	770.0
65.5	752.0
65.51	790.0
65.52	800.0
65.53	782.0
65.54	792.0
65.55	786.0
65.56	793.0
65.57	782.0
65.58	745.0
65.59	747.0
65.6	769.0
65.61	765.0
65.62	755.0
65.63	769.0
65.64	777.0
65.65	779.0
65.66	767.0
65.67	758.0
65.68	759.0
65.69	763.0
65.7	773.0
65.71	802.0
65.72	791.0
65.73	783.0
65.74	798.0
65.75	800.0
65.76	765.0
65.77	797.0
65.78	788.0
65.79	787.0
65.8	795.0
65.81	811.0
65.82	836.0
65.83	817.0
65.84	779.0
65.85	785.0
65.86	830.0
65.87	804.0
65.88	814.0
65.89	816.0
65.9	851.0
65.91	863.0
65.92	884.0
65.93	915.0
65.94	958.0
65.95	930.0
65.96	935.0
65.97	1006.0
65.98	1044.0
65.99	1127.0
66.0	1191.0
66.01	1251.0
66.02	1329.0
66.03	1435.0
66.04	1461.0
66.05	1517.0
66.06	1509.0
66.07	1576.0
66.08	1588.0
66.09	1620.0
66.1	1557.0
66.11	1495.0
66.12	1455.0
66.13	1393.0
66.14	1325.0
66.15	1229.0
66.16	1184.0
66.17	1198.0
66.18	1156.0
66.19	1128.0
66.2	1154.0
66.21	1179.0
66.22	1183.0
66.23	1196.0
66.24	1182.0
66.25	1212.0
66.26	1244.0
66.27	1275.0
66.28	1232.0
66.29	1193.0
66.3	1150.0
66.31	1091.0
66.32	1113.0
66.33	1050.0
66.34	997.0
66.35	978.0
66.36	939.0
66.37	932.0
66.38	845.0
66.39	842.0
66.4	858.0
66.41	846.0
66.42	857.0
66.43	859.0
66.44	850.0
66.45	819.0
66.46	813.0
66.47	824.0
66.48	823.0
66.49	809.0
66.5	821.0
66.51	796.0
66.52	773.0
66.53	809.0
66.54	834.0
66.55	767.0
66.56	760.0
66.57	788.0
66.58	817.0
66.59	800.0
66.6	780.0
66.61	758.0
66.62	758.0
66.63	781.0
66.64	780.0
66.65	771.0
66.66	796.0
66.67	766.0
66.68	798.0
66.69	765.0
66.7	720.0
66.71	765.0
66.72	747.0
66.73	748.0
66.74	747.0
66.75	774.0
66.76	816.0
66.77	780.0
66.78	730.0
66.79	774.0
66.8	772.0
66.81	779.0
66.82	777.0
66.83	775.0
66.84	779.0
66.85	786.0
66.86	777.0
66.87	774.0
66.88	794.0
66.89	791.0
66.9	769.0
66.91	770.0
66.92	764.0
66.93	757.0
66.94	758.0
66.95	765.0
66.96	786.0
66.97	747.0
66.98	768.0
66.99	796.0
67.0	781.0
67.01	762.0
67.02	745.0
67.03	753.0
67.04	749.0
67.05	721.0
67.06	722.0
67.07	737.0
67.08	758.0
67.09	754.0
67.1	755.0
67.11	778.0
67.12	779.0
67.13	767.0
67.14	749.0
67.15	766.0
67.16	768.0
67.17	766.0
67.18	781.0
67.19	746.0
67.2	728.0
67.21	771.0
67.22	750.0
67.23	724.0
67.24	750.0
67.25	768.0
67.26	742.0
67.27	731.0
67.28	746.0
67.29	736.0
67.3	753.0
67.31	739.0
67.32	751.0
67.33	753.0
67.34	762.0
67.35	758.0
67.36	734.0
67.37	726.0
67.38	744.0
67.39	742.0
67.4	701.0
67.41	717.0
67.42	737.0
67.43	728.0
67.44	687.0
67.45	703.0
67.46	742.0
67.47	746.0
67.48	755.0
67.49	752.0
67.5	729.0
67.51	739.0
67.52	725.0
67.53	728.0
67.54	743.0
67.55	759.0
67.56	742.0
67.57	746.0
67.58	774.0
67.59	762.0
67.6	740.0
67.61	731.0
67.62	752.0
67.63	754.0
67.64	759.0
67.65	725.0
67.66	739.0
67.67	746.0
67.68	757.0
67.69	748.0
67.7	718.0
67.71	728.0
67.72	748.0
67.73	768.0
67.74	775.0
67.75	751.0
67.76	743.0
67.77	741.0
67.78	747.0
67.79	722.0
67.8	732.0
67.81	765.0
67.82	714.0
67.83	737.0
67.84	750.0
67.85	757.0
67.86	713.0
67.87	728.0
67.88	732.0
67.89	735.0
67.9	743.0
67.91	733.0
67.92	737.0
67.93	734.0
67.94	743.0
67.95	720.0
67.96	692.0
67.97	715.0
67.98	737.0
67.99	715.0
68.0	726.0
68.01	712.0
68.02	723.0
68.03	716.0
68.04	693.0
68.05	720.0
68.06	731.0
68.07	699.0
68.08	699.0
68.09	713.0
68.1	712.0
68.11	710.0
68.12	740.0
68.13	756.0
68.14	731.0
68.15	714.0
68.16	721.0
68.17	730.0
68.18	729.0
68.19	759.0
68.2	730.0
68.21	731.0
68.22	752.0
68.23	723.0
68.24	703.0
68.25	712.0
68.26	723.0
68.27	728.0
68.28	724.0
68.29	726.0
68.3	732.0
68.31	742.0
68.32	742.0
68.33	730.0
68.34	737.0
68.35	748.0
68.36	699.0
68.37	693.0
68.38	715.0
68.39	721.0
68.4	716.0
68.41	730.0
68.42	740.0
68.43	714.0
68.44	734.0
68.45	747.0
68.46	733.0
68.47	717.0
68.48	740.0
68.49	760.0
68.5	748.0
68.51	755.0
68.52	753.0
68.53	760.0
68.54	741.0
68.55	733.0
68.56	757.0
68.57	749.0
68.58	707.0
68.59	726.0
68.6	748.0
68.61	733.0
68.62	743.0
68.63	696.0
68.64	719.0
68.65	702.0
68.66	715.0
68.67	711.0
68.68	702.0
68.69	694.0
68.7	723.0
68.71	732.0
68.72	703.0
68.73	688.0
68.74	696.0
68.75	707.0
68.76	701.0
68.77	725.0
68.78	708.0
68.79	707.0
68.8	737.0
68.81	727.0
68.82	728.0
68.83	714.0
68.84	739.0
68.85	722.0
68.86	715.0
68.87	761.0
68.88	707.0
68.89	707.0
68.9	697.0
68.91	709.0
68.92	702.0
68.93	711.0
68.94	732.0
68.95	713.0
68.96	719.0
68.97	751.0
68.98	747.0
68.99	778.0
69.0	757.0
69.01	732.0
69.02	705.0
69.03	729.0
69.04	723.0
69.05	700.0
69.06	705.0
69.07	726.0
69.08	779.0
69.09	703.0
69.1	687.0
69.11	693.0
69.12	695.0
69.13	687.0
69.14	724.0
69.15	736.0
69.16	698.0
69.17	751.0
69.18	772.0
69.19	707.0
69.2	697.0
69.21	733.0
69.22	743.0
69.23	738.0
69.24	746.0
69.25	750.0
69.26	737.0
69.27	739.0
69.28	767.0
69.29	744.0
69.3	739.0
69.31	734.0
69.32	712.0
69.33	704.0
69.34	729.0
69.35	721.0
69.36	708.0
69.37	722.0
69.38	736.0
69.39	732.0
69.4	701.0
69.41	707.0
69.42	742.0
69.43	728.0
69.44	734.0
69.45	727.0
69.46	689.0
69.47	711.0
69.48	734.0
69.49	710.0
69.5	728.0
69.51	722.0
69.52	724.0
69.53	717.0
69.54	681.0
69.55	701.0
69.56	700.0
69.57	730.0
69.58	716.0
69.59	695.0
69.6	711.0
69.61	725.0
69.62	707.0
69.63	663.0
69.64	688.0
69.65	709.0
69.66	687.0
69.67	734.0
69.68	713.0
69.69	700.0
69.7	691.0
69.71	697.0
69.72	700.0
69.73	735.0
69.74	714.0
69.75	687.0
69.76	696.0
69.77	714.0
69.78	736.0
69.79	708.0
69.8	677.0
69.81	710.0
69.82	710.0
69.83	711.0
69.84	719.0
69.85	711.0
69.86	705.0
69.87	688.0
69.88	701.0
69.89	698.0
69.9	681.0
69.91	663.0
69.92	674.0
69.93	668.0
69.94	680.0
69.95	688.0
69.96	706.0
69.97	698.0
69.98	712.0
69.99	723.0
70.0	716.0
70.01	716.0
70.02	707.0
70.03	689.0
70.04	668.0
70.05	687.0
70.06	712.0
70.07	690.0
70.08	702.0
70.09	710.0
70.1	690.0
70.11	708.0
70.12	696.0
70.13	710.0
70.14	679.0
70.15	702.0
70.16	696.0
70.17	696.0
70.18	691.0
70.19	674.0
70.2	701.0
70.21	690.0
70.22	683.0
70.23	704.0
70.24	717.0
70.25	731.0
70.26	707.0
70.27	697.0
70.28	703.0
70.29	670.0
70.3	684.0
70.31	697.0
70.32	703.0
70.33	684.0
70.34	703.0
70.35	713.0
70.36	709.0
70.37	730.0
70.38	726.0
70.39	709.0
70.4	713.0
70.41	705.0
70.42	697.0
70.43	724.0
70.44	709.0
70.45	688.0
70.46	718.0
70.47	719.0
70.48	710.0
70.49	714.0
70.5	690.0
70.51	723.0
70.52	718.0
70.53	691.0
70.54	670.0
70.55	662.0
70.56	686.0
70.57	717.0
70.58	695.0
70.59	737.0
70.6	737.0
70.61	682.0
70.62	667.0
70.63	677.0
70.64	711.0
70.65	708.0
70.66	687.0
70.67	706.0
70.68	702.0
70.69	653.0
70.7	663.0
70.71	684.0
70.72	686.0
70.73	692.0
70.74	719.0
70.75	717.0
70.76	713.0
70.77	711.0
70.78	701.0
70.79	706.0
70.8	707.0
70.81	706.0
70.82	708.0
70.83	701.0
70.84	701.0
70.85	718.0
70.86	729.0
70.87	687.0
70.88	706.0
70.89	723.0
70.9	698.0
70.91	688.0
70.92	699.0
70.93	673.0
70.94	657.0
70.95	658.0
70.96	681.0
70.97	685.0
70.98	681.0
70.99	687.0
71.0	700.0
71.01	709.0
71.02	711.0
71.03	671.0
71.04	697.0
71.05	712.0
71.06	708.0
71.07	714.0
71.08	700.0
71.09	696.0
71.1	703.0
71.11	695.0
71.12	679.0
71.13	682.0
71.14	680.0
71.15	686.0
71.16	721.0
71.17	717.0
71.18	729.0
71.19	715.0
71.2	708.0
71.21	745.0
71.22	712.0
71.23	724.0
71.24	749.0
71.25	778.0
71.26	788.0
71.27	785.0
71.28	765.0
71.29	745.0
71.3	754.0
71.31	782.0
71.32	748.0
71.33	716.0
71.34	771.0
71.35	735.0
71.36	735.0
71.37	707.0
71.38	741.0
71.39	721.0
71.4	741.0
71.41	745.0
71.42	719.0
71.43	724.0
71.44	726.0
71.45	732.0
71.46	758.0
71.47	742.0
71.48	751.0
71.49	751.0
71.5	718.0
71.51	725.0
71.52	756.0
71.53	730.0
71.54	752.0
71.55	742.0
71.56	731.0
71.57	732.0
71.58	732.0
71.59	719.0
71.6	748.0
71.61	737.0
71.62	715.0
71.63	667.0
71.64	682.0
71.65	711.0
71.66	692.0
71.67	705.0
71.68	687.0
71.69	682.0
71.7	709.0
71.71	699.0
71.72	710.0
71.73	724.0
71.74	702.0
71.75	698.0
71.76	723.0
71.77	656.0
71.78	696.0
71.79	729.0
71.8	727.0
71.81	676.0
71.82	684.0
71.83	679.0
71.84	681.0
71.85	696.0
71.86	672.0
71.87	690.0
71.88	708.0
71.89	680.0
71.9	728.0
71.91	700.0
71.92	675.0
71.93	700.0
71.94	696.0
71.95	696.0
71.96	684.0
71.97	647.0
71.98	690.0
71.99	718.0
72.0	710.0
72.01	699.0
72.02	678.0
72.03	697.0
72.04	697.0
72.05	700.0
72.06	683.0
72.07	702.0
72.08	707.0
72.09	698.0
72.1	684.0
72.11	689.0
72.12	689.0
72.13	669.0
72.14	677.0
72.15	710.0
72.16	685.0
72.17	665.0
72.18	664.0
72.19	683.0
72.2	688.0
72.21	707.0
72.22	678.0
72.23	713.0
72.24	709.0
72.25	699.0
72.26	694.0
72.27	696.0
72.28	733.0
72.29	719.0
72.3	692.0
72.31	686.0
72.32	707.0
72.33	699.0
72.34	672.0
72.35	682.0
72.36	702.0
72.37	689.0
72.38	659.0
72.39	662.0
72.4	666.0
72.41	667.0
72.42	668.0
72.43	692.0
72.44	692.0
72.45	699.0
72.46	696.0
72.47	658.0
72.48	681.0
72.49	699.0
72.5	690.0
72.51	669.0
72.52	671.0
72.53	698.0
72.54	702.0
72.55	699.0
72.56	698.0
72.57	702.0
72.58	701.0
72.59	670.0
72.6	661.0
72.61	696.0
72.62	677.0
72.63	681.0
72.64	682.0
72.65	656.0
72.66	671.0
72.67	666.0
72.68	636.0
72.69	663.0
72.7	674.0
72.71	680.0
72.72	686.0
72.73	705.0
72.74	713.0
72.75	697.0
72.76	680.0
72.77	685.0
72.78	679.0
72.79	684.0
72.8	689.0
72.81	705.0
72.82	665.0
72.83	660.0
72.84	700.0
72.85	677.0
72.86	691.0
72.87	691.0
72.88	671.0
72.89	659.0
72.9	686.0
72.91	688.0
72.92	692.0
72.93	677.0
72.94	693.0
72.95	697.0
72.96	671.0
72.97	680.0
72.98	687.0
72.99	670.0
73.0	713.0
73.01	700.0
73.02	685.0
73.03	657.0
73.04	677.0
73.05	685.0
73.06	705.0
73.07	742.0
73.08	685.0
73.09	676.0
73.1	706.0
73.11	702.0
73.12	720.0
73.13	715.0
73.14	701.0
73.15	687.0
73.16	694.0
73.17	688.0
73.18	661.0
73.19	659.0
73.2	684.0
73.21	703.0
73.22	689.0
73.23	688.0
73.24	685.0
73.25	689.0
73.26	714.0
73.27	717.0
73.28	689.0
73.29	658.0
73.3	705.0
73.31	682.0
73.32	708.0
73.33	680.0
73.34	662.0
73.35	690.0
73.36	719.0
73.37	718.0
73.38	687.0
73.39	714.0
73.4	713.0
73.41	689.0
73.42	700.0
73.43	693.0
73.44	672.0
73.45	691.0
73.46	667.0
73.47	659.0
73.48	703.0
73.49	690.0
73.5	740.0
73.51	733.0
73.52	685.0
73.53	734.0
73.54	733.0
73.55	728.0
73.56	726.0
73.57	732.0
73.58	726.0
73.59	711.0
73.6	694.0
73.61	716.0
73.62	717.0
73.63	703.0
73.64	696.0
73.65	683.0
73.66	700.0
73.67	715.0
73.68	688.0
73.69	695.0
73.7	700.0
73.71	728.0
73.72	742.0
73.73	720.0
73.74	714.0
73.75	734.0
73.76	700.0
73.77	684.0
73.78	681.0
73.79	680.0
73.8	700.0
73.81	684.0
73.82	685.0
73.83	725.0
73.84	732.0
73.85	741.0
73.86	715.0
73.87	703.0
73.88	685.0
73.89	703.0
73.9	693.0
73.91	744.0
73.92	721.0
73.93	729.0
73.94	770.0
73.95	722.0
73.96	711.0
73.97	737.0
73.98	744.0
73.99	757.0
74.0	755.0
74.01	746.0
74.02	752.0
74.03	764.0
74.04	733.0
74.05	734.0
74.06	747.0
74.07	723.0
74.08	734.0
74.09	746.0
74.1	775.0
74.11	742.0
74.12	761.0
74.13	798.0
74.14	762.0
74.15	755.0
74.16	778.0
74.17	773.0
74.18	808.0
74.19	813.0
74.2	823.0
74.21	832.0
74.22	862.0
74.23	858.0
74.24	900.0
74.25	947.0
74.26	972.0
74.27	1034.0
74.28	1085.0
74.29	1116.0
74.3	1169.0
74.31	1181.0
74.32	1237.0
74.33	1295.0
74.34	1288.0
74.35	1310.0
74.36	1306.0
74.37	1271.0
74.38	1246.0
74.39	1201.0
74.4	1199.0
74.41	1139.0
74.42	1084.0
74.43	1043.0
74.44	1000.0
74.45	973.0
74.46	960.0
74.47	968.0
74.48	985.0
74.49	975.0
74.5	995.0
74.51	995.0
74.52	1022.0
74.53	1064.0
74.54	1033.0
74.55	1057.0
74.56	1042.0
74.57	1072.0
74.58	1056.0
74.59	1037.0
74.6	1035.0
74.61	997.0
74.62	948.0
74.63	930.0
74.64	894.0
74.65	887.0
74.66	859.0
74.67	834.0
74.68	849.0
74.69	844.0
74.7	796.0
74.71	778.0
74.72	777.0
74.73	786.0
74.74	762.0
74.75	794.0
74.76	777.0
74.77	757.0
74.78	733.0
74.79	733.0
74.8	739.0
74.81	738.0
74.82	716.0
74.83	723.0
74.84	740.0
74.85	768.0
74.86	763.0
74.87	760.0
74.88	763.0
74.89	761.0
74.9	716.0
74.91	710.0
74.92	740.0
74.93	772.0
74.94	750.0
74.95	736.0
74.96	706.0
74.97	729.0
74.98	728.0
74.99	734.0
75.0	759.0
75.01	706.0
75.02	705.0
75.03	739.0
75.04	702.0
75.05	716.0
75.06	754.0
75.07	759.0
75.08	736.0
75.09	746.0
75.1	727.0
75.11	708.0
75.12	734.0
75.13	724.0
75.14	736.0
75.15	754.0
75.16	760.0
75.17	776.0
75.18	760.0
75.19	739.0
75.2	765.0
75.21	801.0
75.22	799.0
75.23	818.0
75.24	848.0
75.25	875.0
75.26	846.0
75.27	882.0
75.28	907.0
75.29	943.0
75.3	960.0
75.31	992.0
75.32	1025.0
75.33	1041.0
75.34	1055.0
75.35	1071.0
75.36	1050.0
75.37	1067.0
75.38	1036.0
75.39	1014.0
75.4	991.0
75.41	958.0
75.42	976.0
75.43	937.0
75.44	892.0
75.45	901.0
75.46	893.0
75.47	859.0
75.48	847.0
75.49	876.0
75.5	882.0
75.51	899.0
75.52	895.0
75.53	908.0
75.54	918.0
75.55	885.0
75.56	888.0
75.57	902.0
75.58	921.0
75.59	919.0
75.6	853.0
75.61	855.0
75.62	893.0
75.63	877.0
75.64	869.0
75.65	837.0
75.66	840.0
75.67	783.0
75.68	786.0
75.69	775.0
75.7	756.0
75.71	748.0
75.72	751.0
75.73	756.0
75.74	749.0
75.75	727.0
75.76	703.0
75.77	710.0
75.78	689.0
75.79	721.0
75.8	749.0
75.81	753.0
75.82	760.0
75.83	721.0
75.84	688.0
75.85	698.0
75.86	711.0
75.87	754.0
75.88	732.0
75.89	719.0
75.9	722.0
75.91	732.0
75.92	710.0
75.93	729.0
75.94	723.0
75.95	720.0
75.96	713.0
75.97	697.0
75.98	692.0
75.99	702.0
76.0	718.0
76.01	726.0
76.02	715.0
76.03	705.0
76.04	687.0
76.05	683.0
76.06	680.0
76.07	699.0
76.08	692.0
76.09	701.0
76.1	708.0
76.11	701.0
76.12	669.0
76.13	698.0
76.14	764.0
76.15	746.0
76.16	697.0
76.17	709.0
76.18	695.0
76.19	697.0
76.2	690.0
76.21	719.0
76.22	721.0
76.23	703.0
76.24	701.0
76.25	661.0
76.26	668.0
76.27	704.0
76.28	706.0
76.29	711.0
76.3	717.0
76.31	708.0
76.32	717.0
76.33	681.0
76.34	693.0
76.35	697.0
76.36	695.0
76.37	701.0
76.38	714.0
76.39	725.0
76.4	698.0
76.41	694.0
76.42	677.0
76.43	699.0
76.44	722.0
76.45	675.0
76.46	660.0
76.47	676.0
76.48	707.0
76.49	704.0
76.5	717.0
76.51	722.0
76.52	711.0
76.53	704.0
76.54	708.0
76.55	694.0
76.56	718.0
76.57	692.0
76.58	673.0
76.59	679.0
76.6	658.0
76.61	674.0
76.62	696.0
76.63	704.0
76.64	664.0
76.65	674.0
76.66	656.0
76.67	650.0
76.68	691.0
76.69	711.0
76.7	706.0
76.71	681.0
76.72	682.0
76.73	668.0
76.74	654.0
76.75	680.0
76.76	693.0
76.77	670.0
76.78	667.0
76.79	690.0
76.8	690.0
76.81	678.0
76.82	675.0
76.83	649.0
76.84	669.0
76.85	665.0
76.86	670.0
76.87	673.0
76.88	651.0
76.89	658.0
76.9	692.0
76.91	689.0
76.92	680.0
76.93	651.0
76.94	659.0
76.95	654.0
76.96	642.0
76.97	643.0
76.98	656.0
76.99	677.0
77.0	653.0
77.01	681.0
77.02	685.0
77.03	688.0
77.04	651.0
77.05	643.0
77.06	677.0
77.07	698.0
77.08	658.0
77.09	665.0
77.1	691.0
77.11	677.0
77.12	669.0
77.13	689.0
77.14	651.0
77.15	655.0
77.16	683.0
77.17	662.0
77.18	660.0
77.19	667.0
77.2	653.0
77.21	669.0
77.22	670.0
77.23	656.0
77.24	668.0
77.25	668.0
77.26	696.0
77.27	658.0
77.28	673.0
77.29	658.0
77.3	666.0
77.31	685.0
77.32	654.0
77.33	647.0
77.34	661.0
77.35	666.0
77.36	641.0
77.37	630.0
77.38	672.0
77.39	663.0
77.4	668.0
77.41	682.0
77.42	663.0
77.43	667.0
77.44	650.0
77.45	655.0
77.46	665.0
77.47	650.0
77.48	651.0
77.49	635.0
77.5	653.0
77.51	658.0
77.52	666.0
77.53	669.0
77.54	673.0
77.55	632.0
77.56	653.0
77.57	652.0
77.58	649.0
77.59	691.0
77.6	651.0
77.61	633.0
77.62	653.0
77.63	652.0
77.64	661.0
77.65	653.0
77.66	651.0
77.67	648.0
77.68	688.0
77.69	654.0
77.7	626.0
77.71	655.0
77.72	642.0
77.73	629.0
77.74	651.0
77.75	670.0
77.76	623.0
77.77	625.0
77.78	632.0
77.79	634.0
77.8	619.0
77.81	640.0
77.82	648.0
77.83	646.0
77.84	631.0
77.85	625.0
77.86	621.0
77.87	633.0
77.88	650.0
77.89	668.0
77.9	651.0
77.91	623.0
77.92	632.0
77.93	649.0
77.94	636.0
77.95	658.0
77.96	676.0
77.97	652.0
77.98	674.0
77.99	650.0
78.0	658.0
78.01	663.0
78.02	655.0
78.03	639.0
78.04	664.0
78.05	684.0
78.06	657.0
78.07	649.0
78.08	644.0
78.09	643.0
78.1	639.0
78.11	633.0
78.12	661.0
78.13	650.0
78.14	634.0
78.15	628.0
78.16	638.0
78.17	655.0
78.18	665.0
78.19	649.0
78.2	694.0
78.21	692.0
78.22	690.0
78.23	693.0
78.24	680.0
78.25	658.0
78.26	631.0
78.27	644.0
78.28	652.0
78.29	645.0
78.3	620.0
78.31	650.0
78.32	675.0
78.33	656.0
78.34	667.0
78.35	675.0
78.36	667.0
78.37	648.0
78.38	645.0
78.39	678.0
78.4	654.0
78.41	663.0
78.42	648.0
78.43	675.0
78.44	661.0
78.45	658.0
78.46	658.0
78.47	672.0
78.48	658.0
78.49	642.0
78.5	673.0
78.51	698.0
78.52	668.0
78.53	648.0
78.54	654.0
78.55	701.0
78.56	677.0
78.57	643.0
78.58	701.0
78.59	702.0
78.6	683.0
78.61	679.0
78.62	677.0
78.63	674.0
78.64	669.0
78.65	684.0
78.66	702.0
78.67	671.0
78.68	657.0
78.69	653.0
78.7	669.0
78.71	689.0
78.72	682.0
78.73	665.0
78.74	666.0
78.75	700.0
78.76	679.0
78.77	674.0
78.78	668.0
78.79	672.0
78.8	702.0
78.81	684.0
78.82	666.0
78.83	679.0
78.84	658.0
78.85	662.0
78.86	666.0
78.87	671.0
78.88	669.0
78.89	668.0
78.9	680.0
78.91	709.0
78.92	739.0
78.93	683.0
78.94	693.0
78.95	690.0
78.96	693.0
78.97	716.0
78.98	699.0
78.99	692.0
79.0	696.0
79.01	715.0
79.02	735.0
79.03	704.0
79.04	677.0
79.05	674.0
79.06	685.0
79.07	728.0
79.08	746.0
79.09	729.0
79.1	710.0
79.11	712.0
79.12	751.0
79.13	771.0
79.14	758.0
79.15	727.0
79.16	759.0
79.17	748.0
79.18	744.0
79.19	779.0
79.2	778.0
79.21	778.0
79.22	823.0
79.23	888.0
79.24	875.0
79.25	925.0
79.26	955.0
79.27	988.0
79.28	1031.0
79.29	1142.0
79.3	1157.0
79.31	1168.0
79.32	1215.0
79.33	1261.0
79.34	1280.0
79.35	1293.0
79.36	1266.0
79.37	1235.0
79.38	1188.0
79.39	1157.0
79.4	1100.0
79.41	1061.0
79.42	993.0
79.43	953.0
79.44	992.0
79.45	947.0
79.46	933.0
79.47	893.0
79.48	903.0
79.49	891.0
79.5	911.0
79.51	949.0
79.52	953.0
79.53	978.0
79.54	982.0
79.55	994.0
79.56	1026.0
79.57	1009.0
79.58	1006.0
79.59	998.0
79.6	974.0
79.61	958.0
79.62	932.0
79.63	927.0
79.64	922.0
79.65	907.0
79.66	852.0
79.67	818.0
79.68	824.0
79.69	805.0
79.7	778.0
79.71	782.0
79.72	760.0
79.73	745.0
79.74	760.0
79.75	773.0
79.76	743.0
79.77	740.0
79.78	742.0
79.79	728.0
79.8	746.0
79.81	724.0
79.82	727.0
79.83	748.0
79.84	718.0
79.85	712.0
79.86	736.0
79.87	752.0
79.88	714.0
79.89	743.0
79.9	720.0
79.91	712.0
79.92	719.0
79.93	702.0
79.94	690.0
79.95	709.0
79.96	690.0
79.97	703.0
79.98	715.0
79.99	687.0
80.0	707.0
80.01	727.0
80.02	681.0
80.03	714.0
80.04	675.0
80.05	674.0
80.06	688.0
80.07	672.0
80.08	697.0
80.09	677.0
80.1	672.0
80.11	681.0
80.12	675.0
80.13	688.0
80.14	688.0
80.15	695.0
80.16	682.0
80.17	659.0
80.18	676.0
80.19	692.0
80.2	679.0
80.21	640.0
80.22	655.0
80.23	679.0
80.24	655.0
80.25	662.0
80.26	654.0
80.27	703.0
80.28	713.0
80.29	689.0
80.3	702.0
80.31	661.0
80.32	663.0
80.33	671.0
80.34	668.0
80.35	646.0
80.36	663.0
80.37	652.0
80.38	650.0
80.39	658.0
80.4	689.0
80.41	684.0
80.42	679.0
80.43	679.0
80.44	683.0
80.45	679.0
80.46	700.0
80.47	671.0
80.48	655.0
80.49	647.0
80.5	683.0
80.51	661.0
80.52	682.0
80.53	683.0
80.54	687.0
80.55	658.0
80.56	674.0
80.57	670.0
80.58	670.0
80.59	675.0
80.6	648.0
80.61	667.0
80.62	675.0
80.63	670.0
80.64	679.0
80.65	663.0
80.66	676.0
80.67	652.0
80.68	676.0
80.69	684.0
80.7	657.0
80.71	648.0
80.72	655.0
80.73	674.0
80.74	679.0
80.75	632.0
80.76	626.0
80.77	634.0
80.78	655.0
80.79	655.0
80.8	654.0
80.81	671.0
80.82	673.0
80.83	686.0
80.84	684.0
80.85	675.0
80.86	661.0
80.87	643.0
80.88	662.0
80.89	648.0
80.9	617.0
80.91	660.0
80.92	677.0
80.93	682.0
80.94	679.0
80.95	680.0
80.96	680.0
80.97	667.0
80.98	659.0
80.99	640.0
81.0	654.0
81.01	647.0
81.02	644.0
81.03	659.0
81.04	655.0
81.05	658.0
81.06	664.0
81.07	686.0
81.08	685.0
81.09	688.0
81.1	657.0
81.11	667.0
81.12	636.0
81.13	636.0
81.14	670.0
81.15	694.0
81.16	656.0
81.17	626.0
81.18	637.0
81.19	677.0
81.2	670.0
81.21	662.0
81.22	649.0
81.23	626.0
81.24	642.0
81.25	662.0
81.26	656.0
81.27	643.0
81.28	623.0
81.29	654.0
81.3	669.0
81.31	642.0
81.32	635.0
81.33	653.0
81.34	657.0
81.35	657.0
81.36	665.0
81.37	664.0
81.38	683.0
81.39	670.0
81.4	690.0
81.41	666.0
81.42	689.0
81.43	663.0
81.44	655.0
81.45	645.0
81.46	634.0
81.47	633.0
81.48	662.0
81.49	681.0
81.5	649.0
81.51	630.0
81.52	635.0
81.53	655.0
81.54	661.0
81.55	672.0
81.56	659.0
81.57	681.0
81.58	679.0
81.59	694.0
81.6	664.0
81.61	670.0
81.62	667.0
81.63	660.0
81.64	659.0
81.65	655.0
81.66	636.0
81.67	642.0
81.68	658.0
81.69	656.0
81.7	654.0
81.71	655.0
81.72	699.0
81.73	687.0
81.74	693.0
81.75	693.0
81.76	665.0
81.77	670.0
81.78	651.0
81.79	662.0
81.8	661.0
81.81	663.0
81.82	676.0
81.83	675.0
81.84	657.0
81.85	643.0
81.86	673.0
81.87	679.0
81.88	667.0
81.89	664.0
81.9	668.0
81.91	668.0
81.92	633.0
81.93	658.0
81.94	678.0
81.95	678.0
81.96	678.0
81.97	688.0
81.98	726.0
81.99	717.0
82.0	692.0
82.01	690.0
82.02	706.0
82.03	710.0
82.04	706.0
82.05	710.0
82.06	688.0
82.07	658.0
82.08	676.0
82.09	710.0
82.1	725.0
82.11	741.0
82.12	719.0
82.13	704.0
82.14	710.0
82.15	746.0
82.16	748.0
82.17	751.0
82.18	754.0
82.19	772.0
82.2	797.0
82.21	805.0
82.22	791.0
82.23	834.0
82.24	910.0
82.25	955.0
82.26	962.0
82.27	972.0
82.28	971.0
82.29	989.0
82.3	991.0
82.31	964.0
82.32	943.0
82.33	924.0
82.34	924.0
82.35	913.0
82.36	923.0
82.37	887.0
82.38	870.0
82.39	823.0
82.4	840.0
82.41	871.0
82.42	832.0
82.43	812.0
82.44	830.0
82.45	816.0
82.46	797.0
82.47	787.0
82.48	808.0
82.49	821.0
82.5	807.0
82.51	804.0
82.52	824.0
82.53	838.0
82.54	829.0
82.55	839.0
82.56	820.0
82.57	820.0
82.58	845.0
82.59	825.0
82.6	800.0
82.61	779.0
82.62	779.0
82.63	757.0
82.64	750.0
82.65	784.0
82.66	777.0
82.67	734.0
82.68	714.0
82.69	706.0
82.7	708.0
82.71	699.0
82.72	662.0
82.73	672.0
82.74	702.0
82.75	700.0
82.76	696.0
82.77	690.0
82.78	689.0
82.79	695.0
82.8	692.0
82.81	690.0
82.82	706.0
82.83	675.0
82.84	666.0
82.85	643.0
82.86	679.0
82.87	672.0
82.88	668.0
82.89	650.0
82.9	661.0
82.91	695.0
82.92	698.0
82.93	672.0
82.94	666.0
82.95	680.0
82.96	677.0
82.97	647.0
82.98	643.0
82.99	660.0
83.0	684.0
83.01	678.0
83.02	653.0
83.03	641.0
83.04	635.0
83.05	643.0
83.06	649.0
83.07	638.0
83.08	619.0
83.09	645.0
83.1	664.0
83.11	691.0
83.12	672.0
83.13	637.0
83.14	661.0
83.15	666.0
83.16	680.0
83.17	667.0
83.18	656.0
83.19	691.0
83.2	671.0
83.21	676.0
83.22	665.0
83.23	679.0
83.24	671.0
83.25	654.0
83.26	662.0
83.27	655.0
83.28	686.0
83.29	667.0
83.3	666.0
83.31	664.0
83.32	678.0
83.33	683.0
83.34	682.0
83.35	672.0
83.36	666.0
83.37	665.0
83.38	640.0
83.39	638.0
83.4	648.0
83.41	651.0
83.42	653.0
83.43	668.0
83.44	666.0
83.45	672.0
83.46	669.0
83.47	645.0
83.48	655.0
83.49	660.0
83.5	636.0
83.51	629.0
83.52	600.0
83.53	655.0
83.54	666.0
83.55	651.0
83.56	632.0
83.57	642.0
83.58	648.0
83.59	639.0
83.6	637.0
83.61	632.0
83.62	647.0
83.63	682.0
83.64	672.0
83.65	650.0
83.66	628.0
83.67	629.0
83.68	622.0
83.69	593.0
83.7	627.0
83.71	630.0
83.72	600.0
83.73	630.0
83.74	650.0
83.75	657.0
83.76	660.0
83.77	642.0
83.78	659.0
83.79	653.0
83.8	621.0
83.81	623.0
83.82	633.0
83.83	644.0
83.84	643.0
83.85	656.0
83.86	650.0
83.87	622.0
83.88	617.0
83.89	603.0
83.9	621.0
83.91	638.0
83.92	665.0
83.93	668.0
83.94	665.0
83.95	648.0
83.96	640.0
83.97	641.0
83.98	640.0
83.99	638.0
84.0	647.0
84.01	654.0
84.02	651.0
84.03	630.0
84.04	647.0
84.05	675.0
84.06	674.0
84.07	630.0
84.08	643.0
84.09	662.0
84.1	660.0
84.11	661.0
84.12	674.0
84.13	665.0
84.14	655.0
84.15	668.0
84.16	659.0
84.17	626.0
84.18	645.0
84.19	648.0
84.2	630.0
84.21	637.0
84.22	660.0
84.23	687.0
84.24	673.0
84.25	662.0
84.26	635.0
84.27	646.0
84.28	654.0
84.29	658.0
84.3	670.0
84.31	669.0
84.32	656.0
84.33	635.0
84.34	633.0
84.35	675.0
84.36	696.0
84.37	651.0
84.38	649.0
84.39	647.0
84.4	635.0
84.41	651.0
84.42	674.0
84.43	675.0
84.44	658.0
84.45	637.0
84.46	644.0
84.47	648.0
84.48	640.0
84.49	615.0
84.5	617.0
84.51	623.0
84.52	641.0
84.53	634.0
84.54	645.0
84.55	659.0
84.56	664.0
84.57	666.0
84.58	659.0
84.59	645.0
84.6	652.0
84.61	642.0
84.62	641.0
84.63	652.0
84.64	643.0
84.65	637.0
84.66	642.0
84.67	647.0
84.68	672.0
84.69	666.0
84.7	654.0
84.71	647.0
84.72	651.0
84.73	640.0
84.74	627.0
84.75	671.0
84.76	662.0
84.77	647.0
84.78	637.0
84.79	628.0
84.8	624.0
84.81	647.0
84.82	647.0
84.83	665.0
84.84	668.0
84.85	640.0
84.86	643.0
84.87	632.0
84.88	621.0
84.89	635.0
84.9	620.0
84.91	633.0
84.92	660.0
84.93	646.0
84.94	652.0
84.95	635.0
84.96	634.0
84.97	649.0
84.98	650.0
84.99	655.0
85.0	667.0
85.01	659.0
85.02	648.0
85.03	661.0
85.04	639.0
85.05	622.0
85.06	634.0
85.07	655.0
85.08	673.0
85.09	668.0
85.1	662.0
85.11	655.0
85.12	646.0
85.13	647.0
85.14	639.0
85.15	642.0
85.16	633.0
85.17	640.0
85.18	636.0
85.19	648.0
85.2	638.0
85.21	645.0
85.22	616.0
85.23	618.0
85.24	642.0
85.25	647.0
85.26	621.0
85.27	615.0
85.28	618.0
85.29	634.0
85.3	641.0
85.31	647.0
85.32	640.0
85.33	648.0
85.34	623.0
85.35	642.0
85.36	639.0
85.37	626.0
85.38	627.0
85.39	644.0
85.4	660.0
85.41	666.0
85.42	652.0
85.43	638.0
85.44	634.0
85.45	632.0
85.46	670.0
85.47	652.0
85.48	646.0
85.49	653.0
85.5	645.0
85.51	651.0
85.52	636.0
85.53	640.0
85.54	664.0
85.55	648.0
85.56	633.0
85.57	631.0
85.58	633.0
85.59	642.0
85.6	647.0
85.61	656.0
85.62	610.0
85.63	589.0
85.64	617.0
85.65	650.0
85.66	648.0
85.67	620.0
85.68	615.0
85.69	640.0
85.7	645.0
85.71	632.0
85.72	616.0
85.73	617.0
85.74	634.0
85.75	635.0
85.76	618.0
85.77	597.0
85.78	632.0
85.79	681.0
85.8	678.0
85.81	634.0
85.82	627.0
85.83	644.0
85.84	631.0
85.85	641.0
85.86	661.0
85.87	657.0
85.88	645.0
85.89	616.0
85.9	596.0
85.91	602.0
85.92	623.0
85.93	633.0
85.94	652.0
85.95	678.0
85.96	625.0
85.97	613.0
85.98	612.0
85.99	604.0
86.0	605.0
86.01	637.0
86.02	630.0
86.03	635.0
86.04	632.0
86.05	625.0
86.06	645.0
86.07	659.0
86.08	649.0
86.09	620.0
86.1	626.0
86.11	636.0
86.12	624.0
86.13	632.0
86.14	656.0
86.15	651.0
86.16	642.0
86.17	645.0
86.18	640.0
86.19	653.0
86.2	659.0
86.21	623.0
86.22	640.0
86.23	644.0
86.24	636.0
86.25	615.0
86.26	611.0
86.27	637.0
86.28	643.0
86.29	621.0
86.3	625.0
86.31	640.0
86.32	633.0
86.33	616.0
86.34	626.0
86.35	661.0
86.36	641.0
86.37	633.0
86.38	658.0
86.39	661.0
86.4	653.0
86.41	652.0
86.42	650.0
86.43	648.0
86.44	639.0
86.45	622.0
86.46	602.0
86.47	623.0
86.48	629.0
86.49	646.0
86.5	664.0
86.51	651.0
86.52	644.0
86.53	631.0
86.54	638.0
86.55	644.0
86.56	643.0
86.57	651.0
86.58	651.0
86.59	632.0
86.6	646.0
86.61	663.0
86.62	666.0
86.63	666.0
86.64	652.0
86.65	643.0
86.66	646.0
86.67	629.0
86.68	616.0
86.69	651.0
86.7	683.0
86.71	679.0
86.72	685.0
86.73	668.0
86.74	644.0
86.75	645.0
86.76	641.0
86.77	645.0
86.78	646.0
86.79	626.0
86.8	618.0
86.81	625.0
86.82	636.0
86.83	631.0
86.84	624.0
86.85	643.0
86.86	632.0
86.87	657.0
86.88	674.0
86.89	649.0
86.9	667.0
86.91	652.0
86.92	628.0
86.93	654.0
86.94	667.0
86.95	666.0
86.96	659.0
86.97	647.0
86.98	659.0
86.99	660.0
87.0	663.0
87.01	669.0
87.02	663.0
87.03	661.0
87.04	650.0
87.05	665.0
87.06	673.0
87.07	654.0
87.08	677.0
87.09	706.0
87.1	689.0
87.11	677.0
87.12	696.0
87.13	715.0
87.14	722.0
87.15	711.0
87.16	706.0
87.17	730.0
87.18	728.0
87.19	732.0
87.2	712.0
87.21	691.0
87.22	717.0
87.23	724.0
87.24	710.0
87.25	696.0
87.26	675.0
87.27	683.0
87.28	676.0
87.29	653.0
87.3	684.0
87.31	685.0
87.32	687.0
87.33	704.0
87.34	684.0
87.35	667.0
87.36	683.0
87.37	672.0
87.38	640.0
87.39	637.0
87.4	663.0
87.41	661.0
87.42	658.0
87.43	654.0
87.44	681.0
87.45	685.0
87.46	680.0
87.47	685.0
87.48	689.0
87.49	685.0
87.5	683.0
87.51	661.0
87.52	671.0
87.53	673.0
87.54	647.0
87.55	659.0
87.56	679.0
87.57	670.0
87.58	652.0
87.59	647.0
87.6	660.0
87.61	669.0
87.62	693.0
87.63	679.0
87.64	668.0
87.65	649.0
87.66	642.0
87.67	631.0
87.68	631.0
87.69	636.0
87.7	630.0
87.71	647.0
87.72	632.0
87.73	644.0
87.74	670.0
87.75	645.0
87.76	631.0
87.77	642.0
87.78	644.0
87.79	636.0
87.8	619.0
87.81	634.0
87.82	647.0
87.83	639.0
87.84	624.0
87.85	628.0
87.86	646.0
87.87	630.0
87.88	620.0
87.89	612.0
87.9	639.0
87.91	625.0
87.92	633.0
87.93	637.0
87.94	640.0
87.95	639.0
87.96	636.0
87.97	641.0
87.98	647.0
87.99	650.0
88.0	634.0
88.01	608.0
88.02	613.0
88.03	645.0
88.04	635.0
88.05	616.0
88.06	626.0
88.07	637.0
88.08	658.0
88.09	645.0
88.1	629.0
88.11	639.0
88.12	640.0
88.13	610.0
88.14	613.0
88.15	633.0
88.16	643.0
88.17	631.0
88.18	629.0
88.19	660.0
88.2	649.0
88.21	636.0
88.22	647.0
88.23	642.0
88.24	631.0
88.25	613.0
88.26	621.0
88.27	626.0
88.28	637.0
88.29	646.0
88.3	644.0
88.31	659.0
88.32	677.0
88.33	682.0
88.34	673.0
88.35	653.0
88.36	627.0
88.37	630.0
88.38	645.0
88.39	659.0
88.4	652.0
88.41	641.0
88.42	629.0
88.43	627.0
88.44	629.0
88.45	633.0
88.46	638.0
88.47	658.0
88.48	659.0
88.49	648.0
88.5	620.0
88.51	609.0
88.52	623.0
88.53	634.0
88.54	629.0
88.55	637.0
88.56	641.0
88.57	619.0
88.58	626.0
88.59	644.0
88.6	641.0
88.61	643.0
88.62	651.0
88.63	667.0
88.64	660.0
88.65	641.0
88.66	645.0
88.67	640.0
88.68	633.0
88.69	636.0
88.7	655.0
88.71	650.0
88.72	637.0
88.73	632.0
88.74	631.0
88.75	620.0
88.76	609.0
88.77	617.0
88.78	632.0
88.79	636.0
88.8	617.0
88.81	613.0
88.82	634.0
88.83	663.0
88.84	666.0
88.85	660.0
88.86	676.0
88.87	655.0
88.88	645.0
88.89	659.0
88.9	652.0
88.91	656.0
88.92	633.0
88.93	633.0
88.94	644.0
88.95	644.0
88.96	656.0
88.97	659.0
88.98	638.0
88.99	653.0
89.0	643.0
89.01	650.0
89.02	668.0
89.03	660.0
89.04	680.0
89.05	697.0
89.06	683.0
89.07	672.0
89.08	666.0
89.09	661.0
89.1	663.0
89.11	657.0
89.12	672.0
89.13	698.0
89.14	694.0
89.15	664.0
89.16	682.0
89.17	691.0
89.18	664.0
89.19	649.0
89.2	643.0
89.21	681.0
89.22	705.0
89.23	671.0
89.24	662.0
89.25	660.0
89.26	665.0
89.27	686.0
89.28	688.0
89.29	680.0
89.3	692.0
89.31	689.0
89.32	682.0
89.33	697.0
89.34	679.0
89.35	662.0
89.36	657.0
89.37	685.0
89.38	671.0
89.39	649.0
89.4	648.0
89.41	653.0
89.42	701.0
89.43	723.0
89.44	696.0
89.45	674.0
89.46	663.0
89.47	636.0
89.48	656.0
89.49	707.0
89.5	703.0
89.51	690.0
89.52	696.0
89.53	707.0
89.54	699.0
89.55	689.0
89.56	695.0
89.57	714.0
89.58	708.0
89.59	684.0
89.6	676.0
89.61	685.0
89.62	713.0
89.63	713.0
89.64	708.0
89.65	717.0
89.66	716.0
89.67	700.0
89.68	707.0
89.69	722.0
89.7	722.0
89.71	719.0
89.72	707.0
89.73	707.0
89.74	711.0
89.75	729.0
89.76	717.0
89.77	702.0
89.78	703.0
89.79	702.0
89.8	700.0
89.81	713.0
89.82	733.0
89.83	735.0
89.84	719.0
89.85	732.0
89.86	732.0
89.87	734.0
89.88	758.0
89.89	758.0
89.9	765.0
89.91	790.0
89.92	800.0
89.93	809.0
89.94	834.0
89.95	860.0
89.96	889.0
89.97	922.0
89.98	953.0
89.99	978.0
90.0	1021.0
90.01	1078.0
90.02	1102.0
90.03	1125.0
90.04	1185.0
90.05	1232.0
90.06	1288.0
90.07	1323.0
90.08	1342.0
90.09	1356.0
90.1	1370.0
90.11	1382.0
90.12	1359.0
90.13	1324.0
90.14	1291.0
90.15	1243.0
90.16	1190.0
90.17	1155.0
90.18	1106.0
90.19	1048.0
90.2	1021.0
90.21	1013.0
90.22	988.0
90.23	949.0
90.24	931.0
90.25	937.0
90.26	934.0
90.27	941.0
90.28	951.0
90.29	974.0
90.3	994.0
90.31	994.0
90.32	1013.0
90.33	1027.0
90.34	1033.0
90.35	1037.0
90.36	1047.0
90.37	1072.0
90.38	1093.0
90.39	1085.0
90.4	1057.0
90.41	1039.0
90.42	1026.0
90.43	1004.0
90.44	984.0
90.45	936.0
90.46	919.0
90.47	923.0
90.48	888.0
90.49	852.0
90.5	833.0
90.51	819.0
90.52	824.0
90.53	819.0
90.54	782.0
90.55	755.0
90.56	747.0
90.57	745.0
90.58	726.0
90.59	710.0
90.6	718.0
90.61	724.0
90.62	716.0
90.63	686.0
90.64	670.0
90.65	690.0
90.66	700.0
90.67	716.0
90.68	717.0
90.69	716.0
90.7	711.0
90.71	695.0
90.72	714.0
90.73	732.0
90.74	718.0
90.75	712.0
90.76	707.0
90.77	709.0
90.78	703.0
90.79	686.0
90.8	694.0
90.81	693.0
90.82	678.0
90.83	670.0
90.84	681.0
90.85	683.0
90.86	680.0
90.87	683.0
90.88	670.0
90.89	671.0
90.9	688.0
90.91	690.0
90.92	682.0
90.93	682.0
90.94	680.0
90.95	661.0
90.96	645.0
90.97	651.0
90.98	660.0
90.99	669.0
91.0	678.0
91.01	662.0
91.02	638.0
91.03	643.0
91.04	657.0
91.05	654.0
91.06	654.0
91.07	670.0
91.08	699.0
91.09	692.0
91.1	686.0
91.11	677.0
91.12	658.0
91.13	655.0
91.14	655.0
91.15	646.0
91.16	632.0
91.17	642.0
91.18	655.0
91.19	665.0
91.2	671.0
91.21	663.0
91.22	661.0
91.23	661.0
91.24	672.0
91.25	666.0
91.26	644.0
91.27	641.0
91.28	657.0
91.29	680.0
91.3	695.0
91.31	668.0
91.32	640.0
91.33	645.0
91.34	632.0
91.35	645.0
91.36	660.0
91.37	650.0
91.38	656.0
91.39	653.0
91.4	636.0
91.41	644.0
91.42	651.0
91.43	637.0
91.44	637.0
91.45	636.0
91.46	631.0
91.47	634.0
91.48	637.0
91.49	653.0
91.5	668.0
91.51	654.0
91.52	638.0
91.53	645.0
91.54	648.0
91.55	637.0
91.56	638.0
91.57	647.0
91.58	655.0
91.59	659.0
91.6	652.0
91.61	646.0
91.62	645.0
91.63	658.0
91.64	660.0
91.65	650.0
91.66	646.0
91.67	638.0
91.68	648.0
91.69	678.0
91.7	669.0
91.71	651.0
91.72	670.0
91.73	669.0
91.74	659.0
91.75	647.0
91.76	647.0
91.77	648.0
91.78	646.0
91.79	667.0
91.8	663.0
91.81	643.0
91.82	640.0
91.83	654.0
91.84	669.0
91.85	679.0
91.86	669.0
91.87	653.0
91.88	643.0
91.89	642.0
91.9	660.0
91.91	659.0
91.92	650.0
91.93	674.0
91.94	680.0
91.95	650.0
91.96	624.0
91.97	632.0
91.98	655.0
91.99	659.0
92.0	644.0
92.01	636.0
92.02	622.0
92.03	620.0
92.04	624.0
92.05	630.0
92.06	636.0
92.07	643.0
92.08	646.0
92.09	642.0
92.1	627.0
92.11	624.0
92.12	639.0
92.13	639.0
92.14	629.0
92.15	647.0
92.16	674.0
92.17	667.0
92.18	639.0
92.19	645.0
92.2	648.0
92.21	642.0
92.22	632.0
92.23	619.0
92.24	629.0
92.25	652.0
92.26	664.0
92.27	677.0
92.28	668.0
92.29	662.0
92.3	679.0
92.31	685.0
92.32	672.0
92.33	639.0
92.34	616.0
92.35	627.0
92.36	656.0
92.37	670.0
92.38	655.0
92.39	642.0
92.4	629.0
92.41	629.0
92.42	638.0
92.43	648.0
92.44	650.0
92.45	638.0
92.46	619.0
92.47	620.0
92.48	628.0
92.49	613.0
92.5	617.0
92.51	647.0
92.52	661.0
92.53	638.0
92.54	636.0
92.55	659.0
92.56	651.0
92.57	634.0
92.58	624.0
92.59	638.0
92.6	634.0
92.61	635.0
92.62	639.0
92.63	639.0
92.64	632.0
92.65	639.0
92.66	637.0
92.67	633.0
92.68	634.0
92.69	638.0
92.7	656.0
92.71	671.0
92.72	656.0
92.73	625.0
92.74	634.0
92.75	662.0
92.76	671.0
92.77	658.0
92.78	639.0
92.79	636.0
92.8	655.0
92.81	656.0
92.82	626.0
92.83	605.0
92.84	622.0
92.85	643.0
92.86	644.0
92.87	636.0
92.88	643.0
92.89	666.0
92.9	659.0
92.91	639.0
92.92	646.0
92.93	652.0
92.94	645.0
92.95	638.0
92.96	659.0
92.97	669.0
92.98	668.0
92.99	662.0
93.0	639.0
93.01	645.0
93.02	638.0
93.03	632.0
93.04	641.0
93.05	651.0
93.06	649.0
93.07	638.0
93.08	638.0
93.09	636.0
93.1	636.0
93.11	646.0
93.12	656.0
93.13	648.0
93.14	632.0
93.15	647.0
93.16	654.0
93.17	623.0
93.18	637.0
93.19	668.0
93.2	638.0
93.21	615.0
93.22	620.0
93.23	633.0
93.24	631.0
93.25	634.0
93.26	651.0
93.27	638.0
93.28	628.0
93.29	621.0
93.3	619.0
93.31	634.0
93.32	631.0
93.33	633.0
93.34	642.0
93.35	656.0
93.36	641.0
93.37	624.0
93.38	621.0
93.39	621.0
93.4	642.0
93.41	669.0
93.42	667.0
93.43	637.0
93.44	616.0
93.45	606.0
93.46	639.0
93.47	654.0
93.48	651.0
93.49	643.0
93.5	631.0
93.51	620.0
93.52	635.0
93.53	650.0
93.54	636.0
93.55	628.0
93.56	654.0
93.57	671.0
93.58	667.0
93.59	654.0
93.6	643.0
93.61	637.0
93.62	652.0
93.63	649.0
93.64	642.0
93.65	654.0
93.66	629.0
93.67	636.0
93.68	647.0
93.69	645.0
93.7	656.0
93.71	668.0
93.72	657.0
93.73	633.0
93.74	616.0
93.75	629.0
93.76	654.0
93.77	659.0
93.78	647.0
93.79	646.0
93.8	650.0
93.81	645.0
93.82	654.0
93.83	644.0
93.84	649.0
93.85	642.0
93.86	655.0
93.87	664.0
93.88	657.0
93.89	658.0
93.9	681.0
93.91	685.0
93.92	684.0
93.93	649.0
93.94	641.0
93.95	643.0
93.96	657.0
93.97	659.0
93.98	635.0
93.99	634.0
94.0	656.0
94.01	686.0
94.02	652.0
94.03	640.0
94.04	675.0
94.05	663.0
94.06	648.0
94.07	647.0
94.08	648.0
94.09	648.0
94.1	645.0
94.11	648.0
94.12	646.0
94.13	632.0
94.14	622.0
94.15	624.0
94.16	646.0
94.17	632.0
94.18	629.0
94.19	650.0
94.2	666.0
94.21	691.0
94.22	680.0
94.23	667.0
94.24	677.0
94.25	677.0
94.26	669.0
94.27	662.0
94.28	659.0
94.29	644.0
94.3	636.0
94.31	681.0
94.32	690.0
94.33	660.0
94.34	661.0
94.35	673.0
94.36	686.0
94.37	675.0
94.38	661.0
94.39	662.0
94.4	675.0
94.41	662.0
94.42	646.0
94.43	665.0
94.44	671.0
94.45	671.0
94.46	672.0
94.47	667.0
94.48	667.0
94.49	668.0
94.5	661.0
94.51	662.0
94.52	672.0
94.53	676.0
94.54	667.0
94.55	674.0
94.56	658.0
94.57	659.0
94.58	664.0
94.59	669.0
94.6	688.0
94.61	696.0
94.62	678.0
94.63	676.0
94.64	688.0
94.65	687.0
94.66	672.0
94.67	656.0
94.68	661.0
94.69	688.0
94.7	689.0
94.71	689.0
94.72	678.0
94.73	683.0
94.74	705.0
94.75	699.0
94.76	685.0
94.77	698.0
94.78	711.0
94.79	721.0
94.8	744.0
94.81	759.0
94.82	786.0
94.83	784.0
94.84	787.0
94.85	824.0
94.86	843.0
94.87	838.0
94.88	828.0
94.89	867.0
94.9	885.0
94.91	881.0
94.92	918.0
94.93	943.0
94.94	942.0
94.95	933.0
94.96	922.0
94.97	905.0
94.98	930.0
94.99	941.0
95.0	962.0
95.01	917.0
95.02	892.0
95.03	919.0
95.04	882.0
95.05	864.0
95.06	849.0
95.07	839.0
95.08	833.0
95.09	820.0
95.1	778.0
95.11	759.0
95.12	786.0
95.13	777.0
95.14	807.0
95.15	818.0
95.16	808.0
95.17	798.0
95.18	795.0
95.19	799.0
95.2	790.0
95.21	797.0
95.22	813.0
95.23	814.0
95.24	816.0
95.25	839.0
95.26	854.0
95.27	863.0
95.28	877.0
95.29	831.0
95.3	813.0
95.31	836.0
95.32	795.0
95.33	770.0
95.34	789.0
95.35	782.0
95.36	750.0
95.37	755.0
95.38	744.0
95.39	728.0
95.4	716.0
95.41	709.0
95.42	719.0
95.43	702.0
95.44	690.0
95.45	695.0
95.46	693.0
95.47	692.0
95.48	687.0
95.49	662.0
95.5	684.0
95.51	698.0
95.52	694.0
95.53	684.0
95.54	696.0
95.55	695.0
95.56	686.0
95.57	696.0
95.58	671.0
95.59	662.0
95.6	659.0
95.61	689.0
95.62	696.0
95.63	679.0
95.64	633.0
95.65	638.0
95.66	642.0
95.67	639.0
95.68	648.0
95.69	646.0
95.7	664.0
95.71	668.0
95.72	651.0
95.73	664.0
95.74	675.0
95.75	662.0
95.76	680.0
95.77	686.0
95.78	669.0
95.79	648.0
95.8	644.0
95.81	649.0
95.82	649.0
95.83	634.0
95.84	653.0
95.85	663.0
95.86	655.0
95.87	660.0
95.88	682.0
95.89	666.0
95.9	662.0
95.91	654.0
95.92	655.0
95.93	642.0
95.94	632.0
95.95	620.0
95.96	636.0
95.97	625.0
95.98	637.0
95.99	624.0
96.0	636.0
96.01	638.0
96.02	636.0
96.03	663.0
96.04	650.0
96.05	640.0
96.06	658.0
96.07	653.0
96.08	645.0
96.09	649.0
96.1	643.0
96.11	621.0
96.12	639.0
96.13	662.0
96.14	666.0
96.15	642.0
96.16	647.0
96.17	651.0
96.18	650.0
96.19	635.0
96.2	621.0
96.21	624.0
96.22	628.0
96.23	636.0
96.24	653.0
96.25	680.0
96.26	660.0
96.27	619.0
96.28	628.0
96.29	645.0
96.3	643.0
96.31	660.0
96.32	671.0
96.33	643.0
96.34	631.0
96.35	638.0
96.36	664.0
96.37	675.0
96.38	637.0
96.39	641.0
96.4	652.0
96.41	640.0
96.42	638.0
96.43	657.0
96.44	646.0
96.45	657.0
96.46	658.0
96.47	657.0
96.48	660.0
96.49	645.0
96.5	631.0
96.51	618.0
96.52	616.0
96.53	631.0
96.54	618.0
96.55	612.0
96.56	614.0
96.57	631.0
96.58	651.0
96.59	619.0
96.6	621.0
96.61	653.0
96.62	664.0
96.63	648.0
96.64	647.0
96.65	659.0
96.66	659.0
96.67	650.0
96.68	645.0
96.69	628.0
96.7	631.0
96.71	618.0
96.72	609.0
96.73	629.0
96.74	645.0
96.75	642.0
96.76	647.0
96.77	661.0
96.78	657.0
96.79	600.0
96.8	609.0
96.81	643.0
96.82	633.0
96.83	619.0
96.84	614.0
96.85	649.0
96.86	651.0
96.87	653.0
96.88	644.0
96.89	632.0
96.9	641.0
96.91	651.0
96.92	639.0
96.93	637.0
96.94	643.0
96.95	660.0
96.96	624.0
96.97	594.0
96.98	610.0
96.99	619.0
97.0	647.0
97.01	623.0
97.02	644.0
97.03	658.0
97.04	653.0
97.05	622.0
97.06	605.0
97.07	634.0
97.08	651.0
97.09	643.0
97.1	611.0
97.11	626.0
97.12	635.0
97.13	631.0
97.14	629.0
97.15	646.0
97.16	643.0
97.17	629.0
97.18	609.0
97.19	609.0
97.2	623.0
97.21	647.0
97.22	635.0
97.23	616.0
97.24	613.0
97.25	614.0
97.26	643.0
97.27	662.0
97.28	636.0
97.29	604.0
97.3	616.0
97.31	639.0
97.32	648.0
97.33	613.0
97.34	598.0
97.35	596.0
97.36	604.0
97.37	619.0
97.38	606.0
97.39	618.0
97.4	626.0
97.41	620.0
97.42	621.0
97.43	632.0
97.44	644.0
97.45	625.0
97.46	662.0
97.47	625.0
97.48	619.0
97.49	634.0
97.5	636.0
97.51	646.0
97.52	649.0
97.53	652.0
97.54	650.0
97.55	647.0
97.56	615.0
97.57	609.0
97.58	636.0
97.59	640.0
97.6	634.0
97.61	645.0
97.62	652.0
97.63	633.0
97.64	630.0
97.65	630.0
97.66	635.0
97.67	630.0
97.68	633.0
97.69	613.0
97.7	633.0
97.71	627.0
97.72	630.0
97.73	643.0
97.74	649.0
97.75	644.0
97.76	652.0
97.77	647.0
97.78	637.0
97.79	629.0
97.8	616.0
97.81	623.0
97.82	651.0
97.83	639.0
97.84	635.0
97.85	645.0
97.86	634.0
97.87	627.0
97.88	639.0
97.89	650.0
97.9	657.0
97.91	627.0
97.92	618.0
97.93	640.0
97.94	626.0
97.95	650.0
97.96	647.0
97.97	640.0
97.98	629.0
97.99	629.0
98.0	646.0
98.01	647.0
98.02	652.0
98.03	617.0
98.04	611.0
98.05	633.0
98.06	637.0
98.07	638.0
98.08	636.0
98.09	631.0
98.1	681.0
98.11	663.0
98.12	618.0
98.13	607.0
98.14	638.0
98.15	656.0
98.16	640.0
98.17	623.0
98.18	623.0
98.19	641.0
98.2	642.0
98.21	655.0
98.22	652.0
98.23	635.0
98.24	624.0
98.25	664.0
98.26	663.0
98.27	633.0
98.28	628.0
98.29	630.0
98.3	661.0
98.31	638.0
98.32	635.0
98.33	632.0
98.34	657.0
98.35	645.0
98.36	635.0
98.37	640.0
98.38	652.0
98.39	642.0
98.4	639.0
98.41	612.0
98.42	616.0
98.43	653.0
98.44	637.0
98.45	623.0
98.46	611.0
98.47	632.0
98.48	641.0
98.49	647.0
98.5	624.0
98.51	602.0
98.52	621.0
98.53	611.0
98.54	619.0
98.55	643.0
98.56	639.0
98.57	660.0
98.58	647.0
98.59	645.0
98.6	631.0
98.61	614.0
98.62	626.0
98.63	633.0
98.64	635.0
98.65	610.0
98.66	621.0
98.67	630.0
98.68	635.0
98.69	639.0
98.7	623.0
98.71	641.0
98.72	617.0
98.73	609.0
98.74	624.0
98.75	604.0
98.76	585.0
98.77	587.0
98.78	606.0
98.79	624.0
98.8	634.0
98.81	606.0
98.82	607.0
98.83	640.0
98.84	630.0
98.85	638.0
98.86	631.0
98.87	638.0
98.88	629.0
98.89	611.0
98.9	609.0
98.91	622.0
98.92	615.0
98.93	598.0
98.94	620.0
98.95	667.0
98.96	638.0
98.97	612.0
98.98	633.0
98.99	648.0
99.0	639.0
99.01	651.0
99.02	628.0
99.03	608.0
99.04	615.0
99.05	638.0
99.06	644.0
99.07	642.0
99.08	641.0
99.09	635.0
99.1	604.0
99.11	623.0
99.12	659.0
99.13	650.0
99.14	619.0
99.15	650.0
99.16	627.0
99.17	606.0
99.18	603.0
99.19	616.0
99.2	645.0
99.21	638.0
99.22	651.0
99.23	663.0
99.24	654.0
99.25	614.0
99.26	623.0
99.27	629.0
99.28	618.0
99.29	631.0
99.3	601.0
99.31	600.0
99.32	627.0
99.33	646.0
99.34	673.0
99.35	618.0
99.36	649.0
99.37	682.0
99.38	615.0
99.39	638.0
99.4	655.0
99.41	625.0
99.42	636.0
99.43	662.0
99.44	667.0
99.45	657.0
99.46	666.0
99.47	638.0
99.48	624.0
99.49	649.0
99.5	630.0
99.51	641.0
99.52	643.0
99.53	639.0
99.54	620.0
99.55	626.0
99.56	648.0
99.57	617.0
99.58	640.0
99.59	611.0
99.6	658.0
99.61	663.0
99.62	623.0
99.63	617.0
99.64	618.0
99.65	609.0
99.66	584.0
99.67	615.0
99.68	640.0
99.69	616.0
99.7	640.0
99.71	643.0
99.72	637.0
99.73	616.0
99.74	626.0
99.75	651.0
99.76	648.0
99.77	637.0
99.78	626.0
99.79	619.0
99.8	652.0
99.81	640.0
99.82	614.0
99.83	606.0
99.84	648.0
99.85	667.0
99.86	617.0
99.87	615.0
99.88	608.0
99.89	635.0
99.9	649.0
99.91	651.0
99.92	639.0
99.93	648.0
99.94	635.0
99.95	611.0
99.96	643.0
99.97	638.0
99.98	646.0
99.99	634.0
100.0	627.0
