Offstoi_LiMnTiO4_900
Wavelength = 1.54059 Ã… (Cu)
10.0	1704.0
10.01	1665.0
10.02	1673.0
10.03	1671.0
10.04	1720.0
10.05	1729.0
10.06	1739.0
10.07	1705.0
10.08	1701.0
10.09	1733.0
10.1	1710.0
10.11	1691.0
10.12	1736.0
10.13	1714.0
10.14	1707.0
10.15	1755.0
10.16	1771.0
10.17	1756.0
10.18	1735.0
10.19	1731.0
10.2	1705.0
10.21	1699.0
10.22	1704.0
10.23	1673.0
10.24	1737.0
10.25	1741.0
10.26	1696.0
10.27	1698.0
10.28	1747.0
10.29	1717.0
10.3	1717.0
10.31	1738.0
10.32	1680.0
10.33	1716.0
10.34	1756.0
10.35	1740.0
10.36	1752.0
10.37	1771.0
10.38	1734.0
10.39	1703.0
10.4	1774.0
10.41	1766.0
10.42	1738.0
10.43	1748.0
10.44	1761.0
10.45	1793.0
10.46	1773.0
10.47	1801.0
10.48	1799.0
10.49	1728.0
10.5	1694.0
10.51	1737.0
10.52	1763.0
10.53	1740.0
10.54	1772.0
10.55	1770.0
10.56	1748.0
10.57	1702.0
10.58	1748.0
10.59	1726.0
10.6	1747.0
10.61	1738.0
10.62	1738.0
10.63	1771.0
10.64	1758.0
10.65	1740.0
10.66	1718.0
10.67	1720.0
10.68	1806.0
10.69	1789.0
10.7	1749.0
10.71	1769.0
10.72	1801.0
10.73	1796.0
10.74	1764.0
10.75	1776.0
10.76	1765.0
10.77	1781.0
10.78	1785.0
10.79	1803.0
10.8	1799.0
10.81	1798.0
10.82	1788.0
10.83	1766.0
10.84	1782.0
10.85	1782.0
10.86	1822.0
10.87	1844.0
10.88	1808.0
10.89	1789.0
10.9	1706.0
10.91	1739.0
10.92	1810.0
10.93	1797.0
10.94	1767.0
10.95	1781.0
10.96	1870.0
10.97	1808.0
10.98	1744.0
10.99	1769.0
11.0	1810.0
11.01	1867.0
11.02	1791.0
11.03	1759.0
11.04	1833.0
11.05	1793.0
11.06	1780.0
11.07	1798.0
11.08	1843.0
11.09	1862.0
11.1	1829.0
11.11	1815.0
11.12	1803.0
11.13	1826.0
11.14	1830.0
11.15	1847.0
11.16	1775.0
11.17	1758.0
11.18	1860.0
11.19	1865.0
11.2	1825.0
11.21	1802.0
11.22	1812.0
11.23	1825.0
11.24	1834.0
11.25	1855.0
11.26	1784.0
11.27	1759.0
11.28	1790.0
11.29	1827.0
11.3	1855.0
11.31	1846.0
11.32	1858.0
11.33	1805.0
11.34	1805.0
11.35	1836.0
11.36	1843.0
11.37	1838.0
11.38	1890.0
11.39	1849.0
11.4	1841.0
11.41	1847.0
11.42	1819.0
11.43	1841.0
11.44	1806.0
11.45	1846.0
11.46	1815.0
11.47	1829.0
11.48	1849.0
11.49	1844.0
11.5	1847.0
11.51	1894.0
11.52	1876.0
11.53	1882.0
11.54	1854.0
11.55	1852.0
11.56	1799.0
11.57	1854.0
11.58	1860.0
11.59	1864.0
11.6	1839.0
11.61	1842.0
11.62	1823.0
11.63	1834.0
11.64	1879.0
11.65	1851.0
11.66	1891.0
11.67	1884.0
11.68	1873.0
11.69	1887.0
11.7	1894.0
11.71	1865.0
11.72	1880.0
11.73	1894.0
11.74	1913.0
11.75	1902.0
11.76	1820.0
11.77	1875.0
11.78	1868.0
11.79	1870.0
11.8	1909.0
11.81	1944.0
11.82	1920.0
11.83	1880.0
11.84	1827.0
11.85	1812.0
11.86	1831.0
11.87	1847.0
11.88	1821.0
11.89	1841.0
11.9	1895.0
11.91	1893.0
11.92	1864.0
11.93	1852.0
11.94	1883.0
11.95	1906.0
11.96	1914.0
11.97	1905.0
11.98	1853.0
11.99	1809.0
12.0	1897.0
12.01	1903.0
12.02	1925.0
12.03	1941.0
12.04	1903.0
12.05	1909.0
12.06	1915.0
12.07	1946.0
12.08	1955.0
12.09	1921.0
12.1	1852.0
12.11	1859.0
12.12	1918.0
12.13	1929.0
12.14	1930.0
12.15	1928.0
12.16	1906.0
12.17	1933.0
12.18	1932.0
12.19	1896.0
12.2	1865.0
12.21	1895.0
12.22	1920.0
12.23	1911.0
12.24	1879.0
12.25	1909.0
12.26	1918.0
12.27	1900.0
12.28	1911.0
12.29	1912.0
12.3	1899.0
12.31	1912.0
12.32	1942.0
12.33	1944.0
12.34	1924.0
12.35	1920.0
12.36	1903.0
12.37	1941.0
12.38	1928.0
12.39	1954.0
12.4	1897.0
12.41	1889.0
12.42	1892.0
12.43	1944.0
12.44	1957.0
12.45	1935.0
12.46	1924.0
12.47	1948.0
12.48	1934.0
12.49	1951.0
12.5	1942.0
12.51	1897.0
12.52	1888.0
12.53	1906.0
12.54	1894.0
12.55	1943.0
12.56	1952.0
12.57	1876.0
12.58	1855.0
12.59	1929.0
12.6	1949.0
12.61	1926.0
12.62	1912.0
12.63	1966.0
12.64	1968.0
12.65	1973.0
12.66	1961.0
12.67	1962.0
12.68	1932.0
12.69	1941.0
12.7	1928.0
12.71	1883.0
12.72	1949.0
12.73	2001.0
12.74	1966.0
12.75	1908.0
12.76	1913.0
12.77	1973.0
12.78	1976.0
12.79	1940.0
12.8	1947.0
12.81	2006.0
12.82	1966.0
12.83	1953.0
12.84	1988.0
12.85	1916.0
12.86	1935.0
12.87	1899.0
12.88	1956.0
12.89	1984.0
12.9	1955.0
12.91	1911.0
12.92	1924.0
12.93	1911.0
12.94	1896.0
12.95	1976.0
12.96	1970.0
12.97	1974.0
12.98	1965.0
12.99	1995.0
13.0	2002.0
13.01	2002.0
13.02	2002.0
13.03	1955.0
13.04	1944.0
13.05	1990.0
13.06	2013.0
13.07	1995.0
13.08	1942.0
13.09	1970.0
13.1	1952.0
13.11	1951.0
13.12	1919.0
13.13	1905.0
13.14	1928.0
13.15	1995.0
13.16	2020.0
13.17	2007.0
13.18	1964.0
13.19	1929.0
13.2	1962.0
13.21	2025.0
13.22	2015.0
13.23	1973.0
13.24	1952.0
13.25	1987.0
13.26	1986.0
13.27	2011.0
13.28	2018.0
13.29	2004.0
13.3	1996.0
13.31	1993.0
13.32	2007.0
13.33	2022.0
13.34	2018.0
13.35	2003.0
13.36	2017.0
13.37	2005.0
13.38	1979.0
13.39	2005.0
13.4	1996.0
13.41	1958.0
13.42	1970.0
13.43	1971.0
13.44	1952.0
13.45	1932.0
13.46	1981.0
13.47	2009.0
13.48	2012.0
13.49	2027.0
13.5	1993.0
13.51	1999.0
13.52	2111.0
13.53	2032.0
13.54	2017.0
13.55	2054.0
13.56	2049.0
13.57	2057.0
13.58	2003.0
13.59	1982.0
13.6	1985.0
13.61	1986.0
13.62	1983.0
13.63	1992.0
13.64	2010.0
13.65	2051.0
13.66	2087.0
13.67	2070.0
13.68	2015.0
13.69	2043.0
13.7	2093.0
13.71	2043.0
13.72	2056.0
13.73	2040.0
13.74	2011.0
13.75	1983.0
13.76	1985.0
13.77	2011.0
13.78	2041.0
13.79	2055.0
13.8	2030.0
13.81	1998.0
13.82	2028.0
13.83	1986.0
13.84	2019.0
13.85	2049.0
13.86	2048.0
13.87	2040.0
13.88	2083.0
13.89	2071.0
13.9	2056.0
13.91	2014.0
13.92	2032.0
13.93	2024.0
13.94	2033.0
13.95	2057.0
13.96	2075.0
13.97	2033.0
13.98	2030.0
13.99	2038.0
14.0	2044.0
14.01	2034.0
14.02	2069.0
14.03	2042.0
14.04	2030.0
14.05	2031.0
14.06	2034.0
14.07	2075.0
14.08	2036.0
14.09	2031.0
14.1	2042.0
14.11	2036.0
14.12	2023.0
14.13	2024.0
14.14	2045.0
14.15	2059.0
14.16	2027.0
14.17	2051.0
14.18	2037.0
14.19	2011.0
14.2	2060.0
14.21	2120.0
14.22	2098.0
14.23	2007.0
14.24	2007.0
14.25	2027.0
14.26	2017.0
14.27	2050.0
14.28	2060.0
14.29	2065.0
14.3	2074.0
14.31	2032.0
14.32	2017.0
14.33	2080.0
14.34	2085.0
14.35	2036.0
14.36	2092.0
14.37	2087.0
14.38	2028.0
14.39	2052.0
14.4	2089.0
14.41	2127.0
14.42	2126.0
14.43	2090.0
14.44	2049.0
14.45	2037.0
14.46	2070.0
14.47	2096.0
14.48	2095.0
14.49	2116.0
14.5	2096.0
14.51	2054.0
14.52	2092.0
14.53	2084.0
14.54	2119.0
14.55	2116.0
14.56	2122.0
14.57	2100.0
14.58	2129.0
14.59	2136.0
14.6	2112.0
14.61	2126.0
14.62	2071.0
14.63	2054.0
14.64	2058.0
14.65	2098.0
14.66	2074.0
14.67	2055.0
14.68	2091.0
14.69	2063.0
14.7	2050.0
14.71	2094.0
14.72	2085.0
14.73	2097.0
14.74	2128.0
14.75	2141.0
14.76	2126.0
14.77	2119.0
14.78	2126.0
14.79	2097.0
14.8	2144.0
14.81	2136.0
14.82	2105.0
14.83	2130.0
14.84	2163.0
14.85	2155.0
14.86	2121.0
14.87	2088.0
14.88	2093.0
14.89	2125.0
14.9	2134.0
14.91	2110.0
14.92	2110.0
14.93	2122.0
14.94	2137.0
14.95	2134.0
14.96	2164.0
14.97	2145.0
14.98	2118.0
14.99	2139.0
15.0	2143.0
15.01	2129.0
15.02	2136.0
15.03	2152.0
15.04	2131.0
15.05	2117.0
15.06	2128.0
15.07	2165.0
15.08	2133.0
15.09	2106.0
15.1	2136.0
15.11	2178.0
15.12	2169.0
15.13	2112.0
15.14	2109.0
15.15	2118.0
15.16	2112.0
15.17	2093.0
15.18	2094.0
15.19	2087.0
15.2	2089.0
15.21	2080.0
15.22	2096.0
15.23	2092.0
15.24	2091.0
15.25	2088.0
15.26	2056.0
15.27	2047.0
15.28	2078.0
15.29	2074.0
15.3	2077.0
15.31	2132.0
15.32	2150.0
15.33	2142.0
15.34	2110.0
15.35	2087.0
15.36	2058.0
15.37	2097.0
15.38	2105.0
15.39	2099.0
15.4	2086.0
15.41	2058.0
15.42	2064.0
15.43	2068.0
15.44	2061.0
15.45	2073.0
15.46	2074.0
15.47	2043.0
15.48	2043.0
15.49	2011.0
15.5	1984.0
15.51	2009.0
15.52	2047.0
15.53	2046.0
15.54	2062.0
15.55	2103.0
15.56	2088.0
15.57	2080.0
15.58	2046.0
15.59	2056.0
15.6	2059.0
15.61	2061.0
15.62	2061.0
15.63	2042.0
15.64	2002.0
15.65	1979.0
15.66	2004.0
15.67	2038.0
15.68	2076.0
15.69	2071.0
15.7	2022.0
15.71	1985.0
15.72	1985.0
15.73	1999.0
15.74	1991.0
15.75	1976.0
15.76	1970.0
15.77	1965.0
15.78	1949.0
15.79	1980.0
15.8	2001.0
15.81	2023.0
15.82	2025.0
15.83	1975.0
15.84	1974.0
15.85	2030.0
15.86	2045.0
15.87	2052.0
15.88	2044.0
15.89	2030.0
15.9	2020.0
15.91	2045.0
15.92	2044.0
15.93	2017.0
15.94	2017.0
15.95	2035.0
15.96	2043.0
15.97	2063.0
15.98	2052.0
15.99	2033.0
16.0	2008.0
16.01	2025.0
16.02	2024.0
16.03	1995.0
16.04	1967.0
16.05	1994.0
16.06	2023.0
16.07	1981.0
16.08	1974.0
16.09	1965.0
16.1	1966.0
16.11	2000.0
16.12	1999.0
16.13	2015.0
16.14	2034.0
16.15	2000.0
16.16	1982.0
16.17	1975.0
16.18	1968.0
16.19	1977.0
16.2	1994.0
16.21	2023.0
16.22	2027.0
16.23	2049.0
16.24	2039.0
16.25	1998.0
16.26	1959.0
16.27	1968.0
16.28	1955.0
16.29	1945.0
16.3	1937.0
16.31	1935.0
16.32	1952.0
16.33	1953.0
16.34	1968.0
16.35	1981.0
16.36	1975.0
16.37	1972.0
16.38	1985.0
16.39	2026.0
16.4	2014.0
16.41	1972.0
16.42	1946.0
16.43	1945.0
16.44	1963.0
16.45	1955.0
16.46	1950.0
16.47	1950.0
16.48	2015.0
16.49	2028.0
16.5	2012.0
16.51	1996.0
16.52	1986.0
16.53	2002.0
16.54	1995.0
16.55	1983.0
16.56	2014.0
16.57	2048.0
16.58	2047.0
16.59	2006.0
16.6	1978.0
16.61	1948.0
16.62	1930.0
16.63	1992.0
16.64	2033.0
16.65	2008.0
16.66	1992.0
16.67	1983.0
16.68	1983.0
16.69	2019.0
16.7	2004.0
16.71	1971.0
16.72	1953.0
16.73	1967.0
16.74	1989.0
16.75	1978.0
16.76	1988.0
16.77	1976.0
16.78	1954.0
16.79	1946.0
16.8	1955.0
16.81	1973.0
16.82	1941.0
16.83	1926.0
16.84	1978.0
16.85	2016.0
16.86	2015.0
16.87	2011.0
16.88	1957.0
16.89	1933.0
16.9	1965.0
16.91	1982.0
16.92	1987.0
16.93	1940.0
16.94	1931.0
16.95	1932.0
16.96	1924.0
16.97	1952.0
16.98	1996.0
16.99	2019.0
17.0	2000.0
17.01	1954.0
17.02	1943.0
17.03	1979.0
17.04	2007.0
17.05	1984.0
17.06	1961.0
17.07	2000.0
17.08	1997.0
17.09	1981.0
17.1	1994.0
17.11	1985.0
17.12	1962.0
17.13	1951.0
17.14	1928.0
17.15	1918.0
17.16	1952.0
17.17	1970.0
17.18	1953.0
17.19	1929.0
17.2	1946.0
17.21	1960.0
17.22	1958.0
17.23	1950.0
17.24	1936.0
17.25	1935.0
17.26	1948.0
17.27	1988.0
17.28	1972.0
17.29	1960.0
17.3	1969.0
17.31	1942.0
17.32	1962.0
17.33	2014.0
17.34	2009.0
17.35	1987.0
17.36	1977.0
17.37	1984.0
17.38	1978.0
17.39	1947.0
17.4	1949.0
17.41	1976.0
17.42	2008.0
17.43	2010.0
17.44	1983.0
17.45	1961.0
17.46	1953.0
17.47	1939.0
17.48	1905.0
17.49	1937.0
17.5	2010.0
17.51	2006.0
17.52	1944.0
17.53	1936.0
17.54	1952.0
17.55	1950.0
17.56	1976.0
17.57	1991.0
17.58	1988.0
17.59	1989.0
17.6	1990.0
17.61	1970.0
17.62	1964.0
17.63	1962.0
17.64	1938.0
17.65	1920.0
17.66	1916.0
17.67	1920.0
17.68	1951.0
17.69	1976.0
17.7	1950.0
17.71	1944.0
17.72	1948.0
17.73	1954.0
17.74	1958.0
17.75	1960.0
17.76	2005.0
17.77	2010.0
17.78	1967.0
17.79	1973.0
17.8	2000.0
17.81	1985.0
17.82	1980.0
17.83	2003.0
17.84	2007.0
17.85	2006.0
17.86	1987.0
17.87	1978.0
17.88	1975.0
17.89	1973.0
17.9	2003.0
17.91	2033.0
17.92	1998.0
17.93	2004.0
17.94	2031.0
17.95	2014.0
17.96	2045.0
17.97	2057.0
17.98	2026.0
17.99	2023.0
18.0	2036.0
18.01	2032.0
18.02	2041.0
18.03	2036.0
18.04	2069.0
18.05	2071.0
18.06	2036.0
18.07	2053.0
18.08	2100.0
18.09	2125.0
18.1	2127.0
18.11	2118.0
18.12	2121.0
18.13	2144.0
18.14	2214.0
18.15	2258.0
18.16	2263.0
18.17	2280.0
18.18	2284.0
18.19	2278.0
18.2	2317.0
18.21	2394.0
18.22	2433.0
18.23	2470.0
18.24	2530.0
18.25	2626.0
18.26	2723.0
18.27	2808.0
18.28	2897.0
18.29	2996.0
18.3	3122.0
18.31	3264.0
18.32	3403.0
18.33	3591.0
18.34	3858.0
18.35	4125.0
18.36	4421.0
18.37	4746.0
18.38	5099.0
18.39	5510.0
18.4	5931.0
18.41	6368.0
18.42	6971.0
18.43	7468.0
18.44	7752.0
18.45	7882.0
18.46	7766.0
18.47	7443.0
18.48	7041.0
18.49	6544.0
18.5	5925.0
18.51	5289.0
18.52	4705.0
18.53	4209.0
18.54	3785.0
18.55	3414.0
18.56	3143.0
18.57	2906.0
18.58	2683.0
18.59	2533.0
18.6	2422.0
18.61	2382.0
18.62	2289.0
18.63	2253.0
18.64	2231.0
18.65	2217.0
18.66	2184.0
18.67	2177.0
18.68	2166.0
18.69	2174.0
18.7	2201.0
18.71	2156.0
18.72	2100.0
18.73	2114.0
18.74	2101.0
18.75	2080.0
18.76	2104.0
18.77	2125.0
18.78	2093.0
18.79	2078.0
18.8	2099.0
18.81	2071.0
18.82	2034.0
18.83	2086.0
18.84	2072.0
18.85	2022.0
18.86	2036.0
18.87	2059.0
18.88	2082.0
18.89	2069.0
18.9	2030.0
18.91	1991.0
18.92	1993.0
18.93	1998.0
18.94	1972.0
18.95	1941.0
18.96	1979.0
18.97	1999.0
18.98	1990.0
18.99	1981.0
19.0	1960.0
19.01	1938.0
19.02	1936.0
19.03	1937.0
19.04	1917.0
19.05	1966.0
19.06	1968.0
19.07	1945.0
19.08	1933.0
19.09	1957.0
19.1	1953.0
19.11	1948.0
19.12	1919.0
19.13	1913.0
19.14	1933.0
19.15	1933.0
19.16	1904.0
19.17	1915.0
19.18	1887.0
19.19	1869.0
19.2	1879.0
19.21	1874.0
19.22	1942.0
19.23	1982.0
19.24	1958.0
19.25	1930.0
19.26	1939.0
19.27	1941.0
19.28	1954.0
19.29	1933.0
19.3	1921.0
19.31	1924.0
19.32	1935.0
19.33	1961.0
19.34	1931.0
19.35	1876.0
19.36	1857.0
19.37	1836.0
19.38	1813.0
19.39	1844.0
19.4	1891.0
19.41	1887.0
19.42	1847.0
19.43	1834.0
19.44	1836.0
19.45	1857.0
19.46	1851.0
19.47	1876.0
19.48	1861.0
19.49	1882.0
19.5	1910.0
19.51	1884.0
19.52	1891.0
19.53	1885.0
19.54	1869.0
19.55	1868.0
19.56	1879.0
19.57	1880.0
19.58	1862.0
19.59	1862.0
19.6	1881.0
19.61	1846.0
19.62	1850.0
19.63	1888.0
19.64	1892.0
19.65	1864.0
19.66	1850.0
19.67	1847.0
19.68	1871.0
19.69	1889.0
19.7	1891.0
19.71	1840.0
19.72	1829.0
19.73	1849.0
19.74	1861.0
19.75	1881.0
19.76	1889.0
19.77	1884.0
19.78	1846.0
19.79	1823.0
19.8	1804.0
19.81	1832.0
19.82	1839.0
19.83	1844.0
19.84	1850.0
19.85	1834.0
19.86	1821.0
19.87	1834.0
19.88	1826.0
19.89	1820.0
19.9	1865.0
19.91	1836.0
19.92	1816.0
19.93	1863.0
19.94	1854.0
19.95	1844.0
19.96	1855.0
19.97	1859.0
19.98	1836.0
19.99	1774.0
20.0	1776.0
20.01	1815.0
20.02	1867.0
20.03	1830.0
20.04	1801.0
20.05	1834.0
20.06	1808.0
20.07	1827.0
20.08	1809.0
20.09	1797.0
20.1	1802.0
20.11	1774.0
20.12	1808.0
20.13	1793.0
20.14	1815.0
20.15	1842.0
20.16	1807.0
20.17	1794.0
20.18	1804.0
20.19	1795.0
20.2	1802.0
20.21	1822.0
20.22	1785.0
20.23	1760.0
20.24	1806.0
20.25	1822.0
20.26	1790.0
20.27	1747.0
20.28	1754.0
20.29	1756.0
20.3	1765.0
20.31	1752.0
20.32	1756.0
20.33	1773.0
20.34	1817.0
20.35	1804.0
20.36	1726.0
20.37	1749.0
20.38	1760.0
20.39	1744.0
20.4	1752.0
20.41	1769.0
20.42	1770.0
20.43	1748.0
20.44	1792.0
20.45	1836.0
20.46	1814.0
20.47	1783.0
20.48	1724.0
20.49	1721.0
20.5	1771.0
20.51	1759.0
20.52	1791.0
20.53	1748.0
20.54	1716.0
20.55	1708.0
20.56	1737.0
20.57	1768.0
20.58	1784.0
20.59	1743.0
20.6	1747.0
20.61	1768.0
20.62	1762.0
20.63	1778.0
20.64	1780.0
20.65	1730.0
20.66	1715.0
20.67	1694.0
20.68	1683.0
20.69	1692.0
20.7	1744.0
20.71	1722.0
20.72	1770.0
20.73	1749.0
20.74	1737.0
20.75	1729.0
20.76	1740.0
20.77	1753.0
20.78	1740.0
20.79	1733.0
20.8	1750.0
20.81	1733.0
20.82	1727.0
20.83	1737.0
20.84	1751.0
20.85	1733.0
20.86	1667.0
20.87	1705.0
20.88	1758.0
20.89	1711.0
20.9	1740.0
20.91	1747.0
20.92	1758.0
20.93	1744.0
20.94	1731.0
20.95	1698.0
20.96	1707.0
20.97	1766.0
20.98	1707.0
20.99	1679.0
21.0	1677.0
21.01	1720.0
21.02	1771.0
21.03	1743.0
21.04	1716.0
21.05	1691.0
21.06	1669.0
21.07	1639.0
21.08	1652.0
21.09	1665.0
21.1	1662.0
21.11	1659.0
21.12	1686.0
21.13	1734.0
21.14	1712.0
21.15	1710.0
21.16	1659.0
21.17	1692.0
21.18	1707.0
21.19	1682.0
21.2	1661.0
21.21	1688.0
21.22	1688.0
21.23	1654.0
21.24	1646.0
21.25	1672.0
21.26	1696.0
21.27	1657.0
21.28	1643.0
21.29	1657.0
21.3	1686.0
21.31	1669.0
21.32	1640.0
21.33	1687.0
21.34	1677.0
21.35	1707.0
21.36	1669.0
21.37	1642.0
21.38	1642.0
21.39	1680.0
21.4	1689.0
21.41	1646.0
21.42	1656.0
21.43	1649.0
21.44	1662.0
21.45	1653.0
21.46	1617.0
21.47	1628.0
21.48	1643.0
21.49	1652.0
21.5	1661.0
21.51	1658.0
21.52	1656.0
21.53	1676.0
21.54	1655.0
21.55	1653.0
21.56	1659.0
21.57	1608.0
21.58	1575.0
21.59	1612.0
21.6	1581.0
21.61	1618.0
21.62	1628.0
21.63	1651.0
21.64	1650.0
21.65	1614.0
21.66	1565.0
21.67	1576.0
21.68	1592.0
21.69	1613.0
21.7	1606.0
21.71	1589.0
21.72	1657.0
21.73	1614.0
21.74	1573.0
21.75	1622.0
21.76	1631.0
21.77	1645.0
21.78	1628.0
21.79	1675.0
21.8	1625.0
21.81	1621.0
21.82	1618.0
21.83	1596.0
21.84	1588.0
21.85	1596.0
21.86	1572.0
21.87	1568.0
21.88	1607.0
21.89	1589.0
21.9	1606.0
21.91	1630.0
21.92	1633.0
21.93	1613.0
21.94	1579.0
21.95	1628.0
21.96	1644.0
21.97	1607.0
21.98	1615.0
21.99	1634.0
22.0	1591.0
22.01	1587.0
22.02	1604.0
22.03	1556.0
22.04	1614.0
22.05	1645.0
22.06	1582.0
22.07	1562.0
22.08	1595.0
22.09	1602.0
22.1	1596.0
22.11	1579.0
22.12	1624.0
22.13	1590.0
22.14	1627.0
22.15	1650.0
22.16	1647.0
22.17	1572.0
22.18	1548.0
22.19	1527.0
22.2	1614.0
22.21	1566.0
22.22	1556.0
22.23	1614.0
22.24	1579.0
22.25	1581.0
22.26	1620.0
22.27	1599.0
22.28	1582.0
22.29	1579.0
22.3	1550.0
22.31	1548.0
22.32	1585.0
22.33	1590.0
22.34	1555.0
22.35	1594.0
22.36	1634.0
22.37	1614.0
22.38	1613.0
22.39	1646.0
22.4	1608.0
22.41	1629.0
22.42	1626.0
22.43	1599.0
22.44	1608.0
22.45	1602.0
22.46	1619.0
22.47	1652.0
22.48	1658.0
22.49	1667.0
22.5	1686.0
22.51	1644.0
22.52	1626.0
22.53	1627.0
22.54	1651.0
22.55	1693.0
22.56	1664.0
22.57	1658.0
22.58	1669.0
22.59	1654.0
22.6	1613.0
22.61	1595.0
22.62	1587.0
22.63	1569.0
22.64	1583.0
22.65	1547.0
22.66	1565.0
22.67	1551.0
22.68	1593.0
22.69	1609.0
22.7	1582.0
22.71	1614.0
22.72	1584.0
22.73	1555.0
22.74	1558.0
22.75	1524.0
22.76	1496.0
22.77	1541.0
22.78	1560.0
22.79	1556.0
22.8	1549.0
22.81	1576.0
22.82	1497.0
22.83	1585.0
22.84	1555.0
22.85	1555.0
22.86	1489.0
22.87	1479.0
22.88	1530.0
22.89	1516.0
22.9	1487.0
22.91	1501.0
22.92	1484.0
22.93	1516.0
22.94	1544.0
22.95	1529.0
22.96	1485.0
22.97	1538.0
22.98	1528.0
22.99	1488.0
23.0	1551.0
23.01	1543.0
23.02	1531.0
23.03	1542.0
23.04	1515.0
23.05	1512.0
23.06	1532.0
23.07	1558.0
23.08	1551.0
23.09	1559.0
23.1	1485.0
23.11	1472.0
23.12	1494.0
23.13	1584.0
23.14	1533.0
23.15	1497.0
23.16	1562.0
23.17	1558.0
23.18	1561.0
23.19	1566.0
23.2	1537.0
23.21	1549.0
23.22	1558.0
23.23	1542.0
23.24	1550.0
23.25	1522.0
23.26	1553.0
23.27	1555.0
23.28	1569.0
23.29	1568.0
23.3	1526.0
23.31	1527.0
23.32	1569.0
23.33	1602.0
23.34	1601.0
23.35	1561.0
23.36	1541.0
23.37	1520.0
23.38	1510.0
23.39	1514.0
23.4	1531.0
23.41	1581.0
23.42	1569.0
23.43	1541.0
23.44	1509.0
23.45	1512.0
23.46	1571.0
23.47	1572.0
23.48	1564.0
23.49	1633.0
23.5	1613.0
23.51	1565.0
23.52	1585.0
23.53	1605.0
23.54	1597.0
23.55	1586.0
23.56	1608.0
23.57	1587.0
23.58	1580.0
23.59	1586.0
23.6	1592.0
23.61	1589.0
23.62	1596.0
23.63	1604.0
23.64	1615.0
23.65	1610.0
23.66	1675.0
23.67	1657.0
23.68	1619.0
23.69	1596.0
23.7	1627.0
23.71	1604.0
23.72	1565.0
23.73	1605.0
23.74	1603.0
23.75	1625.0
23.76	1610.0
23.77	1622.0
23.78	1667.0
23.79	1617.0
23.8	1578.0
23.81	1549.0
23.82	1564.0
23.83	1604.0
23.84	1612.0
23.85	1604.0
23.86	1632.0
23.87	1620.0
23.88	1614.0
23.89	1605.0
23.9	1618.0
23.91	1604.0
23.92	1585.0
23.93	1526.0
23.94	1544.0
23.95	1526.0
23.96	1551.0
23.97	1560.0
23.98	1525.0
23.99	1540.0
24.0	1554.0
24.01	1562.0
24.02	1545.0
24.03	1546.0
24.04	1509.0
24.05	1556.0
24.06	1538.0
24.07	1520.0
24.08	1544.0
24.09	1531.0
24.1	1507.0
24.11	1511.0
24.12	1502.0
24.13	1487.0
24.14	1493.0
24.15	1512.0
24.16	1478.0
24.17	1436.0
24.18	1456.0
24.19	1475.0
24.2	1457.0
24.21	1465.0
24.22	1498.0
24.23	1478.0
24.24	1485.0
24.25	1463.0
24.26	1452.0
24.27	1476.0
24.28	1447.0
24.29	1423.0
24.3	1399.0
24.31	1450.0
24.32	1482.0
24.33	1484.0
24.34	1453.0
24.35	1450.0
24.36	1421.0
24.37	1417.0
24.38	1436.0
24.39	1451.0
24.4	1447.0
24.41	1431.0
24.42	1414.0
24.43	1420.0
24.44	1425.0
24.45	1401.0
24.46	1399.0
24.47	1398.0
24.48	1418.0
24.49	1443.0
24.5	1423.0
24.51	1422.0
24.52	1437.0
24.53	1383.0
24.54	1362.0
24.55	1367.0
24.56	1388.0
24.57	1378.0
24.58	1373.0
24.59	1397.0
24.6	1378.0
24.61	1369.0
24.62	1391.0
24.63	1406.0
24.64	1421.0
24.65	1433.0
24.66	1405.0
24.67	1394.0
24.68	1380.0
24.69	1363.0
24.7	1358.0
24.71	1367.0
24.72	1395.0
24.73	1397.0
24.74	1372.0
24.75	1380.0
24.76	1394.0
24.77	1412.0
24.78	1398.0
24.79	1370.0
24.8	1399.0
24.81	1427.0
24.82	1410.0
24.83	1345.0
24.84	1342.0
24.85	1365.0
24.86	1388.0
24.87	1379.0
24.88	1351.0
24.89	1363.0
24.9	1371.0
24.91	1402.0
24.92	1373.0
24.93	1350.0
24.94	1314.0
24.95	1366.0
24.96	1400.0
24.97	1361.0
24.98	1364.0
24.99	1373.0
25.0	1335.0
25.01	1355.0
25.02	1366.0
25.03	1331.0
25.04	1317.0
25.05	1357.0
25.06	1365.0
25.07	1336.0
25.08	1327.0
25.09	1312.0
25.1	1282.0
25.11	1305.0
25.12	1337.0
25.13	1345.0
25.14	1339.0
25.15	1352.0
25.16	1353.0
25.17	1309.0
25.18	1303.0
25.19	1328.0
25.2	1362.0
25.21	1358.0
25.22	1357.0
25.23	1363.0
25.24	1361.0
25.25	1360.0
25.26	1369.0
25.27	1346.0
25.28	1339.0
25.29	1343.0
25.3	1318.0
25.31	1286.0
25.32	1279.0
25.33	1316.0
25.34	1344.0
25.35	1375.0
25.36	1379.0
25.37	1338.0
25.38	1326.0
25.39	1333.0
25.4	1368.0
25.41	1381.0
25.42	1358.0
25.43	1325.0
25.44	1334.0
25.45	1339.0
25.46	1310.0
25.47	1316.0
25.48	1344.0
25.49	1358.0
25.5	1346.0
25.51	1334.0
25.52	1358.0
25.53	1335.0
25.54	1348.0
25.55	1345.0
25.56	1365.0
25.57	1328.0
25.58	1321.0
25.59	1329.0
25.6	1352.0
25.61	1345.0
25.62	1318.0
25.63	1326.0
25.64	1353.0
25.65	1368.0
25.66	1345.0
25.67	1325.0
25.68	1319.0
25.69	1312.0
25.7	1318.0
25.71	1365.0
25.72	1355.0
25.73	1329.0
25.74	1331.0
25.75	1355.0
25.76	1351.0
25.77	1369.0
25.78	1389.0
25.79	1353.0
25.8	1336.0
25.81	1333.0
25.82	1387.0
25.83	1370.0
25.84	1358.0
25.85	1368.0
25.86	1357.0
25.87	1331.0
25.88	1328.0
25.89	1365.0
25.9	1393.0
25.91	1383.0
25.92	1365.0
25.93	1378.0
25.94	1377.0
25.95	1363.0
25.96	1370.0
25.97	1385.0
25.98	1383.0
25.99	1358.0
26.0	1354.0
26.01	1353.0
26.02	1388.0
26.03	1407.0
26.04	1411.0
26.05	1390.0
26.06	1359.0
26.07	1348.0
26.08	1360.0
26.09	1407.0
26.1	1390.0
26.11	1372.0
26.12	1394.0
26.13	1403.0
26.14	1415.0
26.15	1431.0
26.16	1413.0
26.17	1386.0
26.18	1366.0
26.19	1360.0
26.2	1360.0
26.21	1368.0
26.22	1356.0
26.23	1372.0
26.24	1409.0
26.25	1394.0
26.26	1373.0
26.27	1341.0
26.28	1326.0
26.29	1332.0
26.3	1354.0
26.31	1353.0
26.32	1324.0
26.33	1321.0
26.34	1345.0
26.35	1343.0
26.36	1325.0
26.37	1336.0
26.38	1318.0
26.39	1273.0
26.4	1292.0
26.41	1313.0
26.42	1320.0
26.43	1333.0
26.44	1304.0
26.45	1302.0
26.46	1289.0
26.47	1268.0
26.48	1281.0
26.49	1291.0
26.5	1261.0
26.51	1243.0
26.52	1270.0
26.53	1302.0
26.54	1311.0
26.55	1291.0
26.56	1269.0
26.57	1280.0
26.58	1287.0
26.59	1256.0
26.6	1252.0
26.61	1278.0
26.62	1275.0
26.63	1247.0
26.64	1222.0
26.65	1198.0
26.66	1207.0
26.67	1255.0
26.68	1263.0
26.69	1243.0
26.7	1221.0
26.71	1222.0
26.72	1243.0
26.73	1254.0
26.74	1248.0
26.75	1227.0
26.76	1243.0
26.77	1281.0
26.78	1281.0
26.79	1273.0
26.8	1237.0
26.81	1228.0
26.82	1260.0
26.83	1268.0
26.84	1276.0
26.85	1271.0
26.86	1244.0
26.87	1240.0
26.88	1230.0
26.89	1234.0
26.9	1226.0
26.91	1230.0
26.92	1226.0
26.93	1195.0
26.94	1202.0
26.95	1226.0
26.96	1241.0
26.97	1247.0
26.98	1253.0
26.99	1252.0
27.0	1251.0
27.01	1235.0
27.02	1209.0
27.03	1200.0
27.04	1225.0
27.05	1249.0
27.06	1253.0
27.07	1216.0
27.08	1210.0
27.09	1244.0
27.1	1223.0
27.11	1229.0
27.12	1225.0
27.13	1217.0
27.14	1246.0
27.15	1253.0
27.16	1220.0
27.17	1192.0
27.18	1204.0
27.19	1211.0
27.2	1206.0
27.21	1198.0
27.22	1185.0
27.23	1183.0
27.24	1191.0
27.25	1220.0
27.26	1216.0
27.27	1189.0
27.28	1218.0
27.29	1235.0
27.3	1216.0
27.31	1244.0
27.32	1267.0
27.33	1217.0
27.34	1194.0
27.35	1228.0
27.36	1236.0
27.37	1218.0
27.38	1230.0
27.39	1255.0
27.4	1274.0
27.41	1286.0
27.42	1260.0
27.43	1206.0
27.44	1206.0
27.45	1250.0
27.46	1255.0
27.47	1230.0
27.48	1224.0
27.49	1243.0
27.5	1245.0
27.51	1240.0
27.52	1286.0
27.53	1313.0
27.54	1273.0
27.55	1234.0
27.56	1228.0
27.57	1227.0
27.58	1209.0
27.59	1214.0
27.6	1229.0
27.61	1242.0
27.62	1256.0
27.63	1258.0
27.64	1249.0
27.65	1252.0
27.66	1263.0
27.67	1258.0
27.68	1221.0
27.69	1192.0
27.7	1193.0
27.71	1213.0
27.72	1219.0
27.73	1190.0
27.74	1178.0
27.75	1160.0
27.76	1154.0
27.77	1153.0
27.78	1129.0
27.79	1162.0
27.8	1220.0
27.81	1229.0
27.82	1202.0
27.83	1180.0
27.84	1160.0
27.85	1147.0
27.86	1165.0
27.87	1187.0
27.88	1204.0
27.89	1214.0
27.9	1211.0
27.91	1196.0
27.92	1172.0
27.93	1146.0
27.94	1135.0
27.95	1152.0
27.96	1166.0
27.97	1171.0
27.98	1182.0
27.99	1184.0
28.0	1156.0
28.01	1158.0
28.02	1172.0
28.03	1147.0
28.04	1144.0
28.05	1149.0
28.06	1136.0
28.07	1128.0
28.08	1128.0
28.09	1158.0
28.1	1151.0
28.11	1129.0
28.12	1113.0
28.13	1113.0
28.14	1132.0
28.15	1146.0
28.16	1163.0
28.17	1150.0
28.18	1143.0
28.19	1116.0
28.2	1142.0
28.21	1141.0
28.22	1157.0
28.23	1179.0
28.24	1179.0
28.25	1188.0
28.26	1161.0
28.27	1115.0
28.28	1103.0
28.29	1140.0
28.3	1193.0
28.31	1202.0
28.32	1184.0
28.33	1176.0
28.34	1155.0
28.35	1140.0
28.36	1142.0
28.37	1147.0
28.38	1143.0
28.39	1153.0
28.4	1131.0
28.41	1123.0
28.42	1119.0
28.43	1108.0
28.44	1154.0
28.45	1168.0
28.46	1130.0
28.47	1133.0
28.48	1155.0
28.49	1159.0
28.5	1132.0
28.51	1112.0
28.52	1124.0
28.53	1125.0
28.54	1139.0
28.55	1150.0
28.56	1159.0
28.57	1112.0
28.58	1135.0
28.59	1140.0
28.6	1121.0
28.61	1140.0
28.62	1147.0
28.63	1131.0
28.64	1122.0
28.65	1127.0
28.66	1142.0
28.67	1142.0
28.68	1116.0
28.69	1087.0
28.7	1093.0
28.71	1098.0
28.72	1112.0
28.73	1110.0
28.74	1108.0
28.75	1101.0
28.76	1101.0
28.77	1119.0
28.78	1130.0
28.79	1136.0
28.8	1108.0
28.81	1090.0
28.82	1127.0
28.83	1117.0
28.84	1095.0
28.85	1087.0
28.86	1104.0
28.87	1145.0
28.88	1158.0
28.89	1146.0
28.9	1122.0
28.91	1128.0
28.92	1115.0
28.93	1100.0
28.94	1124.0
28.95	1125.0
28.96	1106.0
28.97	1112.0
28.98	1128.0
28.99	1120.0
29.0	1105.0
29.01	1122.0
29.02	1122.0
29.03	1119.0
29.04	1133.0
29.05	1125.0
29.06	1096.0
29.07	1108.0
29.08	1094.0
29.09	1094.0
29.1	1091.0
29.11	1089.0
29.12	1079.0
29.13	1099.0
29.14	1100.0
29.15	1072.0
29.16	1060.0
29.17	1093.0
29.18	1144.0
29.19	1143.0
29.2	1136.0
29.21	1130.0
29.22	1101.0
29.23	1057.0
29.24	1073.0
29.25	1099.0
29.26	1091.0
29.27	1086.0
29.28	1100.0
29.29	1109.0
29.3	1084.0
29.31	1085.0
29.32	1096.0
29.33	1121.0
29.34	1112.0
29.35	1095.0
29.36	1098.0
29.37	1103.0
29.38	1099.0
29.39	1086.0
29.4	1091.0
29.41	1089.0
29.42	1109.0
29.43	1093.0
29.44	1080.0
29.45	1079.0
29.46	1074.0
29.47	1075.0
29.48	1083.0
29.49	1107.0
29.5	1092.0
29.51	1088.0
29.52	1070.0
29.53	1091.0
29.54	1077.0
29.55	1054.0
29.56	1062.0
29.57	1109.0
29.58	1106.0
29.59	1128.0
29.6	1114.0
29.61	1091.0
29.62	1093.0
29.63	1098.0
29.64	1103.0
29.65	1082.0
29.66	1083.0
29.67	1058.0
29.68	1061.0
29.69	1089.0
29.7	1074.0
29.71	1091.0
29.72	1097.0
29.73	1106.0
29.74	1088.0
29.75	1090.0
29.76	1100.0
29.77	1096.0
29.78	1115.0
29.79	1127.0
29.8	1124.0
29.81	1104.0
29.82	1117.0
29.83	1111.0
29.84	1111.0
29.85	1075.0
29.86	1092.0
29.87	1089.0
29.88	1113.0
29.89	1110.0
29.9	1104.0
29.91	1113.0
29.92	1129.0
29.93	1136.0
29.94	1108.0
29.95	1121.0
29.96	1143.0
29.97	1123.0
29.98	1140.0
29.99	1101.0
30.0	1104.0
30.01	1132.0
30.02	1124.0
30.03	1100.0
30.04	1124.0
30.05	1121.0
30.06	1123.0
30.07	1144.0
30.08	1148.0
30.09	1106.0
30.1	1124.0
30.11	1136.0
30.12	1138.0
30.13	1154.0
30.14	1126.0
30.15	1168.0
30.16	1224.0
30.17	1247.0
30.18	1283.0
30.19	1301.0
30.2	1321.0
30.21	1386.0
30.22	1476.0
30.23	1533.0
30.24	1595.0
30.25	1611.0
30.26	1722.0
30.27	1732.0
30.28	1814.0
30.29	1842.0
30.3	1828.0
30.31	1809.0
30.32	1791.0
30.33	1734.0
30.34	1704.0
30.35	1645.0
30.36	1591.0
30.37	1529.0
30.38	1450.0
30.39	1441.0
30.4	1403.0
30.41	1328.0
30.42	1297.0
30.43	1306.0
30.44	1235.0
30.45	1159.0
30.46	1149.0
30.47	1112.0
30.48	1137.0
30.49	1132.0
30.5	1112.0
30.51	1101.0
30.52	1094.0
30.53	1070.0
30.54	1075.0
30.55	1095.0
30.56	1117.0
30.57	1073.0
30.58	1094.0
30.59	1064.0
30.6	1023.0
30.61	1033.0
30.62	1075.0
30.63	1059.0
30.64	1052.0
30.65	1043.0
30.66	1027.0
30.67	1051.0
30.68	1070.0
30.69	1047.0
30.7	1052.0
30.71	1037.0
30.72	1016.0
30.73	1046.0
30.74	1035.0
30.75	1048.0
30.76	1062.0
30.77	1041.0
30.78	1040.0
30.79	1054.0
30.8	1048.0
30.81	1030.0
30.82	1016.0
30.83	1027.0
30.84	1054.0
30.85	1029.0
30.86	1035.0
30.87	1043.0
30.88	1027.0
30.89	1020.0
30.9	1004.0
30.91	999.0
30.92	999.0
30.93	983.0
30.94	1002.0
30.95	991.0
30.96	1016.0
30.97	1047.0
30.98	1015.0
30.99	1000.0
31.0	1006.0
31.01	962.0
31.02	965.0
31.03	964.0
31.04	973.0
31.05	1023.0
31.06	1040.0
31.07	1007.0
31.08	978.0
31.09	965.0
31.1	967.0
31.11	976.0
31.12	1017.0
31.13	1037.0
31.14	1016.0
31.15	997.0
31.16	972.0
31.17	953.0
31.18	998.0
31.19	1024.0
31.2	1027.0
31.21	1018.0
31.22	1014.0
31.23	1001.0
31.24	999.0
31.25	1015.0
31.26	984.0
31.27	980.0
31.28	992.0
31.29	1027.0
31.3	987.0
31.31	981.0
31.32	1006.0
31.33	1046.0
31.34	1047.0
31.35	1011.0
31.36	993.0
31.37	994.0
31.38	987.0
31.39	1004.0
31.4	1036.0
31.41	1000.0
31.42	961.0
31.43	965.0
31.44	1002.0
31.45	986.0
31.46	973.0
31.47	994.0
31.48	976.0
31.49	976.0
31.5	976.0
31.51	1016.0
31.52	1000.0
31.53	993.0
31.54	988.0
31.55	1001.0
31.56	974.0
31.57	974.0
31.58	948.0
31.59	945.0
31.6	973.0
31.61	966.0
31.62	940.0
31.63	957.0
31.64	995.0
31.65	1005.0
31.66	996.0
31.67	983.0
31.68	982.0
31.69	993.0
31.7	991.0
31.71	1009.0
31.72	991.0
31.73	1010.0
31.74	977.0
31.75	983.0
31.76	996.0
31.77	976.0
31.78	951.0
31.79	938.0
31.8	975.0
31.81	1011.0
31.82	978.0
31.83	955.0
31.84	990.0
31.85	998.0
31.86	983.0
31.87	968.0
31.88	955.0
31.89	957.0
31.9	994.0
31.91	965.0
31.92	958.0
31.93	981.0
31.94	1009.0
31.95	980.0
31.96	926.0
31.97	941.0
31.98	977.0
31.99	978.0
32.0	994.0
32.01	970.0
32.02	933.0
32.03	914.0
32.04	963.0
32.05	935.0
32.06	926.0
32.07	928.0
32.08	970.0
32.09	974.0
32.1	981.0
32.11	981.0
32.12	1016.0
32.13	1004.0
32.14	987.0
32.15	940.0
32.16	975.0
32.17	1016.0
32.18	958.0
32.19	957.0
32.2	935.0
32.21	971.0
32.22	981.0
32.23	986.0
32.24	982.0
32.25	977.0
32.26	942.0
32.27	953.0
32.28	918.0
32.29	955.0
32.3	954.0
32.31	962.0
32.32	962.0
32.33	961.0
32.34	957.0
32.35	940.0
32.36	949.0
32.37	943.0
32.38	970.0
32.39	947.0
32.4	980.0
32.41	926.0
32.42	958.0
32.43	988.0
32.44	971.0
32.45	950.0
32.46	956.0
32.47	943.0
32.48	924.0
32.49	945.0
32.5	954.0
32.51	979.0
32.52	986.0
32.53	985.0
32.54	986.0
32.55	983.0
32.56	954.0
32.57	956.0
32.58	987.0
32.59	973.0
32.6	973.0
32.61	969.0
32.62	979.0
32.63	955.0
32.64	917.0
32.65	951.0
32.66	947.0
32.67	988.0
32.68	942.0
32.69	918.0
32.7	910.0
32.71	933.0
32.72	960.0
32.73	934.0
32.74	971.0
32.75	969.0
32.76	988.0
32.77	949.0
32.78	945.0
32.79	902.0
32.8	938.0
32.81	937.0
32.82	946.0
32.83	959.0
32.84	943.0
32.85	937.0
32.86	925.0
32.87	982.0
32.88	981.0
32.89	953.0
32.9	968.0
32.91	956.0
32.92	947.0
32.93	924.0
32.94	946.0
32.95	954.0
32.96	964.0
32.97	932.0
32.98	956.0
32.99	944.0
33.0	938.0
33.01	951.0
33.02	949.0
33.03	934.0
33.04	950.0
33.05	962.0
33.06	946.0
33.07	946.0
33.08	929.0
33.09	916.0
33.1	937.0
33.11	930.0
33.12	948.0
33.13	928.0
33.14	924.0
33.15	940.0
33.16	929.0
33.17	941.0
33.18	932.0
33.19	933.0
33.2	971.0
33.21	978.0
33.22	960.0
33.23	987.0
33.24	980.0
33.25	952.0
33.26	912.0
33.27	917.0
33.28	946.0
33.29	922.0
33.3	929.0
33.31	954.0
33.32	936.0
33.33	934.0
33.34	964.0
33.35	938.0
33.36	940.0
33.37	956.0
33.38	950.0
33.39	967.0
33.4	980.0
33.41	955.0
33.42	922.0
33.43	909.0
33.44	907.0
33.45	908.0
33.46	936.0
33.47	942.0
33.48	927.0
33.49	939.0
33.5	949.0
33.51	956.0
33.52	925.0
33.53	921.0
33.54	944.0
33.55	966.0
33.56	930.0
33.57	903.0
33.58	944.0
33.59	938.0
33.6	916.0
33.61	906.0
33.62	928.0
33.63	979.0
33.64	945.0
33.65	926.0
33.66	935.0
33.67	963.0
33.68	967.0
33.69	948.0
33.7	934.0
33.71	956.0
33.72	961.0
33.73	958.0
33.74	937.0
33.75	935.0
33.76	941.0
33.77	956.0
33.78	950.0
33.79	924.0
33.8	927.0
33.81	911.0
33.82	915.0
33.83	957.0
33.84	972.0
33.85	952.0
33.86	957.0
33.87	952.0
33.88	967.0
33.89	961.0
33.9	963.0
33.91	956.0
33.92	939.0
33.93	936.0
33.94	942.0
33.95	931.0
33.96	927.0
33.97	941.0
33.98	913.0
33.99	889.0
34.0	927.0
34.01	918.0
34.02	965.0
34.03	967.0
34.04	921.0
34.05	925.0
34.06	949.0
34.07	948.0
34.08	929.0
34.09	943.0
34.1	947.0
34.11	932.0
34.12	907.0
34.13	892.0
34.14	896.0
34.15	935.0
34.16	952.0
34.17	950.0
34.18	928.0
34.19	914.0
34.2	941.0
34.21	926.0
34.22	918.0
34.23	920.0
34.24	911.0
34.25	895.0
34.26	912.0
34.27	976.0
34.28	971.0
34.29	948.0
34.3	928.0
34.31	923.0
34.32	934.0
34.33	903.0
34.34	883.0
34.35	914.0
34.36	941.0
34.37	949.0
34.38	964.0
34.39	959.0
34.4	936.0
34.41	915.0
34.42	904.0
34.43	930.0
34.44	993.0
34.45	988.0
34.46	967.0
34.47	934.0
34.48	914.0
34.49	928.0
34.5	955.0
34.51	978.0
34.52	972.0
34.53	963.0
34.54	956.0
34.55	958.0
34.56	983.0
34.57	974.0
34.58	973.0
34.59	977.0
34.6	952.0
34.61	949.0
34.62	955.0
34.63	962.0
34.64	963.0
34.65	961.0
34.66	967.0
34.67	951.0
34.68	959.0
34.69	967.0
34.7	941.0
34.71	943.0
34.72	972.0
34.73	963.0
34.74	976.0
34.75	976.0
34.76	991.0
34.77	964.0
34.78	943.0
34.79	959.0
34.8	993.0
34.81	1008.0
34.82	966.0
34.83	950.0
34.84	965.0
34.85	968.0
34.86	989.0
34.87	979.0
34.88	965.0
34.89	999.0
34.9	1042.0
34.91	1030.0
34.92	984.0
34.93	961.0
34.94	993.0
34.95	1020.0
34.96	1016.0
34.97	987.0
34.98	1015.0
34.99	1046.0
35.0	1046.0
35.01	1010.0
35.02	985.0
35.03	1004.0
35.04	1027.0
35.05	1030.0
35.06	1043.0
35.07	1051.0
35.08	1042.0
35.09	1020.0
35.1	1013.0
35.11	1022.0
35.12	1041.0
35.13	1034.0
35.14	1030.0
35.15	1030.0
35.16	1042.0
35.17	1051.0
35.18	1038.0
35.19	1040.0
35.2	1029.0
35.21	1041.0
35.22	1075.0
35.23	1087.0
35.24	1135.0
35.25	1147.0
35.26	1123.0
35.27	1131.0
35.28	1132.0
35.29	1125.0
35.3	1183.0
35.31	1199.0
35.32	1170.0
35.33	1211.0
35.34	1220.0
35.35	1249.0
35.36	1280.0
35.37	1270.0
35.38	1310.0
35.39	1354.0
35.4	1343.0
35.41	1341.0
35.42	1396.0
35.43	1422.0
35.44	1429.0
35.45	1495.0
35.46	1558.0
35.47	1598.0
35.48	1641.0
35.49	1722.0
35.5	1811.0
35.51	1909.0
35.52	2084.0
35.53	2294.0
35.54	2445.0
35.55	2682.0
35.56	2985.0
35.57	3353.0
35.58	3771.0
35.59	4306.0
35.6	4845.0
35.61	5404.0
35.62	6008.0
35.63	6645.0
35.64	7263.0
35.65	7775.0
35.66	8129.0
35.67	8297.0
35.68	8257.0
35.69	8090.0
35.7	7888.0
35.71	7620.0
35.72	7326.0
35.73	6969.0
35.74	6592.0
35.75	6230.0
35.76	5841.0
35.77	5434.0
35.78	5014.0
35.79	4566.0
35.8	4145.0
35.81	3754.0
35.82	3395.0
35.83	3042.0
35.84	2743.0
35.85	2470.0
35.86	2241.0
35.87	2062.0
35.88	1900.0
35.89	1807.0
35.9	1757.0
35.91	1693.0
35.92	1619.0
35.93	1551.0
35.94	1503.0
35.95	1471.0
35.96	1424.0
35.97	1376.0
35.98	1355.0
35.99	1361.0
36.0	1353.0
36.01	1300.0
36.02	1238.0
36.03	1243.0
36.04	1236.0
36.05	1206.0
36.06	1213.0
36.07	1212.0
36.08	1191.0
36.09	1173.0
36.1	1157.0
36.11	1139.0
36.12	1135.0
36.13	1150.0
36.14	1144.0
36.15	1102.0
36.16	1078.0
36.17	1083.0
36.18	1098.0
36.19	1069.0
36.2	1035.0
36.21	1060.0
36.22	1060.0
36.23	1040.0
36.24	1047.0
36.25	1057.0
36.26	1055.0
36.27	1034.0
36.28	1011.0
36.29	1005.0
36.3	1010.0
36.31	1009.0
36.32	1015.0
36.33	1023.0
36.34	1005.0
36.35	998.0
36.36	998.0
36.37	999.0
36.38	986.0
36.39	976.0
36.4	978.0
36.41	979.0
36.42	987.0
36.43	961.0
36.44	934.0
36.45	938.0
36.46	959.0
36.47	953.0
36.48	934.0
36.49	951.0
36.5	990.0
36.51	1001.0
36.52	953.0
36.53	926.0
36.54	949.0
36.55	949.0
36.56	932.0
36.57	923.0
36.58	922.0
36.59	931.0
36.6	913.0
36.61	893.0
36.62	917.0
36.63	947.0
36.64	941.0
36.65	921.0
36.66	910.0
36.67	922.0
36.68	921.0
36.69	916.0
36.7	923.0
36.71	910.0
36.72	901.0
36.73	900.0
36.74	889.0
36.75	886.0
36.76	905.0
36.77	891.0
36.78	873.0
36.79	872.0
36.8	860.0
36.81	853.0
36.82	866.0
36.83	894.0
36.84	889.0
36.85	893.0
36.86	879.0
36.87	844.0
36.88	853.0
36.89	873.0
36.9	886.0
36.91	870.0
36.92	854.0
36.93	878.0
36.94	889.0
36.95	878.0
36.96	879.0
36.97	871.0
36.98	869.0
36.99	898.0
37.0	901.0
37.01	885.0
37.02	886.0
37.03	890.0
37.04	898.0
37.05	894.0
37.06	883.0
37.07	883.0
37.08	869.0
37.09	879.0
37.1	872.0
37.11	861.0
37.12	878.0
37.13	903.0
37.14	931.0
37.15	938.0
37.16	932.0
37.17	922.0
37.18	932.0
37.19	944.0
37.2	927.0
37.21	950.0
37.22	1029.0
37.23	1077.0
37.24	1096.0
37.25	1102.0
37.26	1142.0
37.27	1184.0
37.28	1207.0
37.29	1252.0
37.3	1274.0
37.31	1264.0
37.32	1264.0
37.33	1263.0
37.34	1243.0
37.35	1187.0
37.36	1157.0
37.37	1166.0
37.38	1186.0
37.39	1164.0
37.4	1132.0
37.41	1127.0
37.42	1088.0
37.43	1044.0
37.44	1051.0
37.45	1045.0
37.46	991.0
37.47	972.0
37.48	990.0
37.49	987.0
37.5	959.0
37.51	930.0
37.52	916.0
37.53	901.0
37.54	903.0
37.55	919.0
37.56	923.0
37.57	907.0
37.58	904.0
37.59	894.0
37.6	876.0
37.61	862.0
37.62	861.0
37.63	876.0
37.64	872.0
37.65	881.0
37.66	852.0
37.67	843.0
37.68	863.0
37.69	861.0
37.7	869.0
37.71	876.0
37.72	874.0
37.73	868.0
37.74	874.0
37.75	851.0
37.76	840.0
37.77	847.0
37.78	853.0
37.79	851.0
37.8	849.0
37.81	858.0
37.82	869.0
37.83	868.0
37.84	864.0
37.85	866.0
37.86	867.0
37.87	851.0
37.88	847.0
37.89	858.0
37.9	855.0
37.91	831.0
37.92	842.0
37.93	874.0
37.94	857.0
37.95	847.0
37.96	867.0
37.97	846.0
37.98	821.0
37.99	851.0
38.0	865.0
38.01	851.0
38.02	827.0
38.03	843.0
38.04	854.0
38.05	848.0
38.06	820.0
38.07	840.0
38.08	853.0
38.09	836.0
38.1	826.0
38.11	849.0
38.12	871.0
38.13	854.0
38.14	844.0
38.15	853.0
38.16	856.0
38.17	869.0
38.18	850.0
38.19	836.0
38.2	809.0
38.21	813.0
38.22	856.0
38.23	866.0
38.24	829.0
38.25	817.0
38.26	834.0
38.27	833.0
38.28	850.0
38.29	855.0
38.3	848.0
38.31	847.0
38.32	812.0
38.33	811.0
38.34	863.0
38.35	873.0
38.36	849.0
38.37	834.0
38.38	839.0
38.39	821.0
38.4	851.0
38.41	880.0
38.42	854.0
38.43	846.0
38.44	839.0
38.45	814.0
38.46	834.0
38.47	870.0
38.48	882.0
38.49	865.0
38.5	857.0
38.51	840.0
38.52	827.0
38.53	841.0
38.54	815.0
38.55	793.0
38.56	799.0
38.57	815.0
38.58	827.0
38.59	837.0
38.6	837.0
38.61	836.0
38.62	824.0
38.63	818.0
38.64	808.0
38.65	836.0
38.66	837.0
38.67	802.0
38.68	820.0
38.69	840.0
38.7	829.0
38.71	852.0
38.72	852.0
38.73	827.0
38.74	830.0
38.75	830.0
38.76	837.0
38.77	843.0
38.78	843.0
38.79	859.0
38.8	852.0
38.81	824.0
38.82	810.0
38.83	795.0
38.84	804.0
38.85	807.0
38.86	810.0
38.87	819.0
38.88	811.0
38.89	823.0
38.9	850.0
38.91	828.0
38.92	792.0
38.93	854.0
38.94	845.0
38.95	823.0
38.96	807.0
38.97	798.0
38.98	820.0
38.99	839.0
39.0	839.0
39.01	828.0
39.02	803.0
39.03	811.0
39.04	846.0
39.05	864.0
39.06	838.0
39.07	817.0
39.08	824.0
39.09	832.0
39.1	826.0
39.11	803.0
39.12	807.0
39.13	836.0
39.14	846.0
39.15	799.0
39.16	803.0
39.17	802.0
39.18	816.0
39.19	836.0
39.2	834.0
39.21	828.0
39.22	806.0
39.23	790.0
39.24	830.0
39.25	847.0
39.26	834.0
39.27	824.0
39.28	824.0
39.29	807.0
39.3	785.0
39.31	778.0
39.32	797.0
39.33	806.0
39.34	798.0
39.35	790.0
39.36	780.0
39.37	768.0
39.38	811.0
39.39	788.0
39.4	798.0
39.41	796.0
39.42	785.0
39.43	810.0
39.44	821.0
39.45	831.0
39.46	790.0
39.47	770.0
39.48	792.0
39.49	815.0
39.5	826.0
39.51	818.0
39.52	810.0
39.53	787.0
39.54	772.0
39.55	770.0
39.56	786.0
39.57	785.0
39.58	758.0
39.59	795.0
39.6	801.0
39.61	809.0
39.62	800.0
39.63	806.0
39.64	802.0
39.65	785.0
39.66	806.0
39.67	801.0
39.68	788.0
39.69	793.0
39.7	785.0
39.71	781.0
39.72	786.0
39.73	763.0
39.74	749.0
39.75	790.0
39.76	772.0
39.77	798.0
39.78	806.0
39.79	791.0
39.8	802.0
39.81	778.0
39.82	798.0
39.83	800.0
39.84	789.0
39.85	799.0
39.86	815.0
39.87	830.0
39.88	800.0
39.89	791.0
39.9	781.0
39.91	793.0
39.92	769.0
39.93	749.0
39.94	762.0
39.95	780.0
39.96	809.0
39.97	801.0
39.98	806.0
39.99	783.0
40.0	802.0
40.01	811.0
40.02	853.0
40.03	819.0
40.04	790.0
40.05	784.0
40.06	776.0
40.07	800.0
40.08	803.0
40.09	798.0
40.1	799.0
40.11	819.0
40.12	786.0
40.13	808.0
40.14	822.0
40.15	786.0
40.16	808.0
40.17	809.0
40.18	789.0
40.19	811.0
40.2	831.0
40.21	833.0
40.22	822.0
40.23	817.0
40.24	819.0
40.25	807.0
40.26	787.0
40.27	793.0
40.28	804.0
40.29	811.0
40.3	825.0
40.31	831.0
40.32	770.0
40.33	745.0
40.34	769.0
40.35	792.0
40.36	820.0
40.37	827.0
40.38	822.0
40.39	783.0
40.4	788.0
40.41	801.0
40.42	805.0
40.43	791.0
40.44	791.0
40.45	798.0
40.46	804.0
40.47	803.0
40.48	795.0
40.49	810.0
40.5	809.0
40.51	840.0
40.52	831.0
40.53	840.0
40.54	817.0
40.55	762.0
40.56	766.0
40.57	784.0
40.58	748.0
40.59	791.0
40.6	814.0
40.61	797.0
40.62	795.0
40.63	768.0
40.64	792.0
40.65	823.0
40.66	790.0
40.67	767.0
40.68	801.0
40.69	783.0
40.7	733.0
40.71	761.0
40.72	790.0
40.73	809.0
40.74	801.0
40.75	782.0
40.76	805.0
40.77	811.0
40.78	801.0
40.79	774.0
40.8	775.0
40.81	795.0
40.82	778.0
40.83	787.0
40.84	790.0
40.85	788.0
40.86	785.0
40.87	792.0
40.88	818.0
40.89	808.0
40.9	771.0
40.91	759.0
40.92	760.0
40.93	757.0
40.94	791.0
40.95	813.0
40.96	763.0
40.97	749.0
40.98	775.0
40.99	783.0
41.0	798.0
41.01	783.0
41.02	777.0
41.03	798.0
41.04	791.0
41.05	805.0
41.06	795.0
41.07	769.0
41.08	774.0
41.09	758.0
41.1	751.0
41.11	763.0
41.12	764.0
41.13	795.0
41.14	777.0
41.15	777.0
41.16	789.0
41.17	769.0
41.18	742.0
41.19	734.0
41.2	752.0
41.21	745.0
41.22	771.0
41.23	792.0
41.24	766.0
41.25	767.0
41.26	783.0
41.27	794.0
41.28	836.0
41.29	796.0
41.3	803.0
41.31	781.0
41.32	800.0
41.33	802.0
41.34	793.0
41.35	782.0
41.36	793.0
41.37	757.0
41.38	776.0
41.39	789.0
41.4	790.0
41.41	797.0
41.42	770.0
41.43	798.0
41.44	781.0
41.45	819.0
41.46	767.0
41.47	794.0
41.48	835.0
41.49	808.0
41.5	769.0
41.51	766.0
41.52	796.0
41.53	792.0
41.54	819.0
41.55	824.0
41.56	797.0
41.57	815.0
41.58	793.0
41.59	763.0
41.6	742.0
41.61	740.0
41.62	773.0
41.63	809.0
41.64	779.0
41.65	749.0
41.66	767.0
41.67	805.0
41.68	774.0
41.69	778.0
41.7	797.0
41.71	800.0
41.72	761.0
41.73	793.0
41.74	799.0
41.75	793.0
41.76	769.0
41.77	770.0
41.78	801.0
41.79	794.0
41.8	769.0
41.81	793.0
41.82	813.0
41.83	801.0
41.84	810.0
41.85	826.0
41.86	806.0
41.87	773.0
41.88	782.0
41.89	801.0
41.9	799.0
41.91	805.0
41.92	790.0
41.93	821.0
41.94	822.0
41.95	792.0
41.96	804.0
41.97	824.0
41.98	824.0
41.99	837.0
42.0	828.0
42.01	811.0
42.02	803.0
42.03	836.0
42.04	809.0
42.05	797.0
42.06	794.0
42.07	815.0
42.08	794.0
42.09	765.0
42.1	746.0
42.11	784.0
42.12	837.0
42.13	793.0
42.14	828.0
42.15	820.0
42.16	822.0
42.17	789.0
42.18	808.0
42.19	828.0
42.2	810.0
42.21	807.0
42.22	844.0
42.23	856.0
42.24	817.0
42.25	820.0
42.26	870.0
42.27	850.0
42.28	819.0
42.29	835.0
42.3	808.0
42.31	803.0
42.32	817.0
42.33	806.0
42.34	803.0
42.35	855.0
42.36	825.0
42.37	815.0
42.38	825.0
42.39	869.0
42.4	868.0
42.41	864.0
42.42	839.0
42.43	866.0
42.44	876.0
42.45	876.0
42.46	852.0
42.47	859.0
42.48	855.0
42.49	860.0
42.5	868.0
42.51	900.0
42.52	886.0
42.53	886.0
42.54	908.0
42.55	876.0
42.56	869.0
42.57	825.0
42.58	840.0
42.59	874.0
42.6	845.0
42.61	845.0
42.62	846.0
42.63	873.0
42.64	905.0
42.65	865.0
42.66	855.0
42.67	848.0
42.68	867.0
42.69	901.0
42.7	860.0
42.71	856.0
42.72	879.0
42.73	914.0
42.74	918.0
42.75	920.0
42.76	916.0
42.77	912.0
42.78	932.0
42.79	920.0
42.8	938.0
42.81	934.0
42.82	950.0
42.83	998.0
42.84	981.0
42.85	930.0
42.86	941.0
42.87	984.0
42.88	967.0
42.89	979.0
42.9	1022.0
42.91	1027.0
42.92	1028.0
42.93	1054.0
42.94	1051.0
42.95	1030.0
42.96	1047.0
42.97	1027.0
42.98	1031.0
42.99	1039.0
43.0	1086.0
43.01	1093.0
43.02	1088.0
43.03	1112.0
43.04	1100.0
43.05	1150.0
43.06	1192.0
43.07	1214.0
43.08	1240.0
43.09	1237.0
43.1	1243.0
43.11	1350.0
43.12	1414.0
43.13	1436.0
43.14	1448.0
43.15	1554.0
43.16	1645.0
43.17	1671.0
43.18	1779.0
43.19	1905.0
43.2	2096.0
43.21	2220.0
43.22	2464.0
43.23	2723.0
43.24	3084.0
43.25	3362.0
43.26	3715.0
43.27	4153.0
43.28	4547.0
43.29	4986.0
43.3	5413.0
43.31	5707.0
43.32	5975.0
43.33	6210.0
43.34	6353.0
43.35	6321.0
43.36	6154.0
43.37	5988.0
43.38	5840.0
43.39	5686.0
43.4	5455.0
43.41	5228.0
43.42	4992.0
43.43	4888.0
43.44	4655.0
43.45	4456.0
43.46	4312.0
43.47	4027.0
43.48	3761.0
43.49	3509.0
43.5	3228.0
43.51	2971.0
43.52	2733.0
43.53	2512.0
43.54	2310.0
43.55	2194.0
43.56	2046.0
43.57	1847.0
43.58	1714.0
43.59	1663.0
43.6	1669.0
43.61	1582.0
43.62	1506.0
43.63	1423.0
43.64	1419.0
43.65	1340.0
43.66	1338.0
43.67	1304.0
43.68	1257.0
43.69	1225.0
43.7	1225.0
43.71	1196.0
43.72	1181.0
43.73	1192.0
43.74	1184.0
43.75	1147.0
43.76	1119.0
43.77	1136.0
43.78	1109.0
43.79	1078.0
43.8	1049.0
43.81	1055.0
43.82	1057.0
43.83	1054.0
43.84	1014.0
43.85	1022.0
43.86	1024.0
43.87	1057.0
43.88	1030.0
43.89	1016.0
43.9	987.0
43.91	965.0
43.92	954.0
43.93	956.0
43.94	961.0
43.95	939.0
43.96	909.0
43.97	975.0
43.98	1003.0
43.99	985.0
44.0	963.0
44.01	934.0
44.02	914.0
44.03	946.0
44.04	894.0
44.05	873.0
44.06	902.0
44.07	933.0
44.08	897.0
44.09	891.0
44.1	887.0
44.11	897.0
44.12	880.0
44.13	884.0
44.14	949.0
44.15	934.0
44.16	890.0
44.17	893.0
44.18	882.0
44.19	862.0
44.2	850.0
44.21	890.0
44.22	908.0
44.23	836.0
44.24	844.0
44.25	845.0
44.26	838.0
44.27	819.0
44.28	827.0
44.29	857.0
44.3	844.0
44.31	840.0
44.32	827.0
44.33	831.0
44.34	808.0
44.35	834.0
44.36	830.0
44.37	823.0
44.38	830.0
44.39	830.0
44.4	838.0
44.41	798.0
44.42	808.0
44.43	839.0
44.44	853.0
44.45	845.0
44.46	805.0
44.47	813.0
44.48	828.0
44.49	842.0
44.5	835.0
44.51	857.0
44.52	841.0
44.53	828.0
44.54	844.0
44.55	850.0
44.56	839.0
44.57	852.0
44.58	866.0
44.59	842.0
44.6	807.0
44.61	803.0
44.62	837.0
44.63	859.0
44.64	860.0
44.65	850.0
44.66	818.0
44.67	802.0
44.68	802.0
44.69	810.0
44.7	806.0
44.71	794.0
44.72	806.0
44.73	811.0
44.74	825.0
44.75	829.0
44.76	826.0
44.77	820.0
44.78	834.0
44.79	817.0
44.8	797.0
44.81	803.0
44.82	775.0
44.83	814.0
44.84	801.0
44.85	796.0
44.86	817.0
44.87	820.0
44.88	790.0
44.89	793.0
44.9	779.0
44.91	801.0
44.92	808.0
44.93	777.0
44.94	740.0
44.95	773.0
44.96	812.0
44.97	818.0
44.98	794.0
44.99	795.0
45.0	782.0
45.01	758.0
45.02	761.0
45.03	781.0
45.04	791.0
45.05	791.0
45.06	773.0
45.07	793.0
45.08	794.0
45.09	815.0
45.1	785.0
45.11	769.0
45.12	747.0
45.13	777.0
45.14	801.0
45.15	795.0
45.16	776.0
45.17	775.0
45.18	790.0
45.19	775.0
45.2	787.0
45.21	806.0
45.22	796.0
45.23	775.0
45.24	787.0
45.25	779.0
45.26	796.0
45.27	772.0
45.28	758.0
45.29	768.0
45.3	805.0
45.31	819.0
45.32	798.0
45.33	727.0
45.34	738.0
45.35	764.0
45.36	759.0
45.37	771.0
45.38	759.0
45.39	764.0
45.4	770.0
45.41	780.0
45.42	766.0
45.43	736.0
45.44	752.0
45.45	763.0
45.46	775.0
45.47	796.0
45.48	771.0
45.49	767.0
45.5	777.0
45.51	782.0
45.52	792.0
45.53	777.0
45.54	749.0
45.55	732.0
45.56	753.0
45.57	794.0
45.58	816.0
45.59	819.0
45.6	803.0
45.61	770.0
45.62	756.0
45.63	779.0
45.64	791.0
45.65	759.0
45.66	755.0
45.67	758.0
45.68	773.0
45.69	788.0
45.7	813.0
45.71	790.0
45.72	766.0
45.73	773.0
45.74	778.0
45.75	761.0
45.76	763.0
45.77	809.0
45.78	782.0
45.79	784.0
45.8	798.0
45.81	803.0
45.82	777.0
45.83	763.0
45.84	776.0
45.85	780.0
45.86	765.0
45.87	767.0
45.88	780.0
45.89	743.0
45.9	766.0
45.91	784.0
45.92	774.0
45.93	778.0
45.94	773.0
45.95	781.0
45.96	771.0
45.97	785.0
45.98	794.0
45.99	786.0
46.0	815.0
46.01	827.0
46.02	800.0
46.03	787.0
46.04	757.0
46.05	761.0
46.06	788.0
46.07	782.0
46.08	808.0
46.09	806.0
46.1	774.0
46.11	770.0
46.12	789.0
46.13	811.0
46.14	795.0
46.15	797.0
46.16	796.0
46.17	790.0
46.18	817.0
46.19	797.0
46.2	763.0
46.21	757.0
46.22	768.0
46.23	768.0
46.24	764.0
46.25	757.0
46.26	753.0
46.27	748.0
46.28	762.0
46.29	756.0
46.3	749.0
46.31	784.0
46.32	811.0
46.33	784.0
46.34	784.0
46.35	754.0
46.36	745.0
46.37	748.0
46.38	790.0
46.39	795.0
46.4	739.0
46.41	747.0
46.42	765.0
46.43	776.0
46.44	750.0
46.45	719.0
46.46	722.0
46.47	747.0
46.48	757.0
46.49	757.0
46.5	749.0
46.51	747.0
46.52	760.0
46.53	757.0
46.54	745.0
46.55	723.0
46.56	738.0
46.57	755.0
46.58	727.0
46.59	742.0
46.6	750.0
46.61	749.0
46.62	747.0
46.63	746.0
46.64	747.0
46.65	728.0
46.66	730.0
46.67	733.0
46.68	745.0
46.69	749.0
46.7	741.0
46.71	753.0
46.72	764.0
46.73	776.0
46.74	782.0
46.75	749.0
46.76	757.0
46.77	750.0
46.78	751.0
46.79	745.0
46.8	749.0
46.81	773.0
46.82	773.0
46.83	760.0
46.84	778.0
46.85	766.0
46.86	738.0
46.87	727.0
46.88	731.0
46.89	719.0
46.9	719.0
46.91	713.0
46.92	721.0
46.93	753.0
46.94	761.0
46.95	761.0
46.96	760.0
46.97	773.0
46.98	758.0
46.99	742.0
47.0	721.0
47.01	728.0
47.02	755.0
47.03	768.0
47.04	745.0
47.05	761.0
47.06	791.0
47.07	772.0
47.08	756.0
47.09	754.0
47.1	763.0
47.11	756.0
47.12	747.0
47.13	758.0
47.14	783.0
47.15	759.0
47.16	753.0
47.17	803.0
47.18	807.0
47.19	773.0
47.2	762.0
47.21	764.0
47.22	776.0
47.23	779.0
47.24	775.0
47.25	784.0
47.26	784.0
47.27	773.0
47.28	789.0
47.29	815.0
47.3	799.0
47.31	789.0
47.32	803.0
47.33	835.0
47.34	874.0
47.35	879.0
47.36	863.0
47.37	892.0
47.38	927.0
47.39	959.0
47.4	1002.0
47.41	1047.0
47.42	1058.0
47.43	1056.0
47.44	1092.0
47.45	1089.0
47.46	1061.0
47.47	1047.0
47.48	1058.0
47.49	1052.0
47.5	1044.0
47.51	1055.0
47.52	1047.0
47.53	1021.0
47.54	999.0
47.55	1011.0
47.56	1034.0
47.57	1015.0
47.58	962.0
47.59	949.0
47.6	977.0
47.61	963.0
47.62	922.0
47.63	905.0
47.64	893.0
47.65	864.0
47.66	859.0
47.67	858.0
47.68	828.0
47.69	785.0
47.7	792.0
47.71	840.0
47.72	857.0
47.73	822.0
47.74	793.0
47.75	779.0
47.76	770.0
47.77	784.0
47.78	778.0
47.79	770.0
47.8	793.0
47.81	793.0
47.82	778.0
47.83	771.0
47.84	768.0
47.85	789.0
47.86	812.0
47.87	785.0
47.88	765.0
47.89	782.0
47.9	781.0
47.91	763.0
47.92	744.0
47.93	743.0
47.94	747.0
47.95	752.0
47.96	757.0
47.97	769.0
47.98	762.0
47.99	763.0
48.0	769.0
48.01	761.0
48.02	749.0
48.03	748.0
48.04	767.0
48.05	766.0
48.06	734.0
48.07	737.0
48.08	751.0
48.09	764.0
48.1	790.0
48.11	781.0
48.12	747.0
48.13	755.0
48.14	790.0
48.15	792.0
48.16	775.0
48.17	757.0
48.18	747.0
48.19	736.0
48.2	748.0
48.21	775.0
48.22	767.0
48.23	745.0
48.24	744.0
48.25	731.0
48.26	728.0
48.27	715.0
48.28	717.0
48.29	724.0
48.3	739.0
48.31	760.0
48.32	771.0
48.33	772.0
48.34	764.0
48.35	746.0
48.36	735.0
48.37	732.0
48.38	725.0
48.39	725.0
48.4	736.0
48.41	749.0
48.42	744.0
48.43	753.0
48.44	762.0
48.45	750.0
48.46	738.0
48.47	739.0
48.48	764.0
48.49	743.0
48.5	724.0
48.51	741.0
48.52	744.0
48.53	729.0
48.54	736.0
48.55	756.0
48.56	759.0
48.57	749.0
48.58	760.0
48.59	755.0
48.6	732.0
48.61	735.0
48.62	751.0
48.63	753.0
48.64	742.0
48.65	747.0
48.66	755.0
48.67	745.0
48.68	733.0
48.69	740.0
48.7	744.0
48.71	730.0
48.72	697.0
48.73	712.0
48.74	749.0
48.75	753.0
48.76	745.0
48.77	750.0
48.78	757.0
48.79	773.0
48.8	780.0
48.81	767.0
48.82	736.0
48.83	729.0
48.84	744.0
48.85	737.0
48.86	708.0
48.87	698.0
48.88	734.0
48.89	755.0
48.9	740.0
48.91	752.0
48.92	763.0
48.93	738.0
48.94	712.0
48.95	697.0
48.96	708.0
48.97	726.0
48.98	730.0
48.99	736.0
49.0	738.0
49.01	733.0
49.02	740.0
49.03	746.0
49.04	743.0
49.05	755.0
49.06	750.0
49.07	754.0
49.08	760.0
49.09	747.0
49.1	732.0
49.11	742.0
49.12	753.0
49.13	749.0
49.14	744.0
49.15	728.0
49.16	724.0
49.17	736.0
49.18	744.0
49.19	739.0
49.2	729.0
49.21	729.0
49.22	752.0
49.23	777.0
49.24	772.0
49.25	751.0
49.26	751.0
49.27	755.0
49.28	742.0
49.29	741.0
49.3	741.0
49.31	729.0
49.32	735.0
49.33	753.0
49.34	747.0
49.35	724.0
49.36	726.0
49.37	745.0
49.38	748.0
49.39	766.0
49.4	763.0
49.41	736.0
49.42	725.0
49.43	731.0
49.44	749.0
49.45	784.0
49.46	773.0
49.47	750.0
49.48	755.0
49.49	758.0
49.5	768.0
49.51	762.0
49.52	765.0
49.53	764.0
49.54	765.0
49.55	752.0
49.56	718.0
49.57	740.0
49.58	785.0
49.59	767.0
49.6	753.0
49.61	762.0
49.62	752.0
49.63	765.0
49.64	781.0
49.65	767.0
49.66	757.0
49.67	769.0
49.68	754.0
49.69	740.0
49.7	743.0
49.71	755.0
49.72	778.0
49.73	781.0
49.74	770.0
49.75	785.0
49.76	779.0
49.77	767.0
49.78	794.0
49.79	814.0
49.8	798.0
49.81	787.0
49.82	794.0
49.83	775.0
49.84	778.0
49.85	793.0
49.86	774.0
49.87	765.0
49.88	775.0
49.89	787.0
49.9	799.0
49.91	807.0
49.92	827.0
49.93	819.0
49.94	772.0
49.95	767.0
49.96	793.0
49.97	777.0
49.98	762.0
49.99	782.0
50.0	790.0
50.01	772.0
50.02	773.0
50.03	787.0
50.04	789.0
50.05	785.0
50.06	777.0
50.07	775.0
50.08	783.0
50.09	792.0
50.1	788.0
50.11	782.0
50.12	784.0
50.13	776.0
50.14	765.0
50.15	766.0
50.16	759.0
50.17	750.0
50.18	743.0
50.19	751.0
50.2	745.0
50.21	731.0
50.22	741.0
50.23	751.0
50.24	749.0
50.25	750.0
50.26	758.0
50.27	739.0
50.28	722.0
50.29	736.0
50.3	737.0
50.31	747.0
50.32	781.0
50.33	778.0
50.34	747.0
50.35	742.0
50.36	767.0
50.37	778.0
50.38	760.0
50.39	737.0
50.4	752.0
50.41	751.0
50.42	737.0
50.43	743.0
50.44	728.0
50.45	714.0
50.46	729.0
50.47	741.0
50.48	743.0
50.49	746.0
50.5	758.0
50.51	775.0
50.52	764.0
50.53	752.0
50.54	750.0
50.55	739.0
50.56	715.0
50.57	707.0
50.58	738.0
50.59	742.0
50.6	723.0
50.61	698.0
50.62	715.0
50.63	733.0
50.64	710.0
50.65	728.0
50.66	735.0
50.67	727.0
50.68	743.0
50.69	756.0
50.7	751.0
50.71	736.0
50.72	718.0
50.73	710.0
50.74	703.0
50.75	708.0
50.76	723.0
50.77	727.0
50.78	732.0
50.79	732.0
50.8	733.0
50.81	742.0
50.82	749.0
50.83	734.0
50.84	719.0
50.85	731.0
50.86	735.0
50.87	740.0
50.88	745.0
50.89	746.0
50.9	734.0
50.91	693.0
50.92	695.0
50.93	724.0
50.94	709.0
50.95	692.0
50.96	711.0
50.97	726.0
50.98	724.0
50.99	723.0
51.0	719.0
51.01	709.0
51.02	725.0
51.03	734.0
51.04	731.0
51.05	753.0
51.06	747.0
51.07	723.0
51.08	707.0
51.09	707.0
51.1	713.0
51.11	724.0
51.12	736.0
51.13	725.0
51.14	716.0
51.15	731.0
51.16	747.0
51.17	741.0
51.18	712.0
51.19	701.0
51.2	735.0
51.21	743.0
51.22	716.0
51.23	702.0
51.24	714.0
51.25	710.0
51.26	698.0
51.27	707.0
51.28	715.0
51.29	728.0
51.3	718.0
51.31	714.0
51.32	709.0
51.33	710.0
51.34	735.0
51.35	736.0
51.36	732.0
51.37	716.0
51.38	705.0
51.39	722.0
51.4	740.0
51.41	736.0
51.42	708.0
51.43	700.0
51.44	717.0
51.45	735.0
51.46	740.0
51.47	730.0
51.48	718.0
51.49	700.0
51.5	671.0
51.51	663.0
51.52	694.0
51.53	710.0
51.54	700.0
51.55	707.0
51.56	728.0
51.57	744.0
51.58	745.0
51.59	717.0
51.6	693.0
51.61	697.0
51.62	694.0
51.63	684.0
51.64	706.0
51.65	713.0
51.66	704.0
51.67	718.0
51.68	730.0
51.69	742.0
51.7	738.0
51.71	718.0
51.72	711.0
51.73	722.0
51.74	714.0
51.75	686.0
51.76	702.0
51.77	722.0
51.78	735.0
51.79	733.0
51.8	720.0
51.81	728.0
51.82	741.0
51.83	729.0
51.84	721.0
51.85	717.0
51.86	710.0
51.87	731.0
51.88	731.0
51.89	726.0
51.9	726.0
51.91	734.0
51.92	743.0
51.93	723.0
51.94	732.0
51.95	737.0
51.96	727.0
51.97	732.0
51.98	726.0
51.99	719.0
52.0	725.0
52.01	713.0
52.02	707.0
52.03	726.0
52.04	743.0
52.05	731.0
52.06	722.0
52.07	715.0
52.08	698.0
52.09	712.0
52.1	716.0
52.11	709.0
52.12	700.0
52.13	692.0
52.14	695.0
52.15	702.0
52.16	744.0
52.17	748.0
52.18	721.0
52.19	714.0
52.2	712.0
52.21	715.0
52.22	718.0
52.23	707.0
52.24	703.0
52.25	711.0
52.26	724.0
52.27	733.0
52.28	729.0
52.29	700.0
52.3	698.0
52.31	733.0
52.32	747.0
52.33	718.0
52.34	695.0
52.35	702.0
52.36	706.0
52.37	710.0
52.38	714.0
52.39	726.0
52.4	725.0
52.41	722.0
52.42	744.0
52.43	747.0
52.44	723.0
52.45	714.0
52.46	722.0
52.47	727.0
52.48	728.0
52.49	721.0
52.5	732.0
52.51	741.0
52.52	714.0
52.53	718.0
52.54	733.0
52.55	734.0
52.56	739.0
52.57	753.0
52.58	743.0
52.59	700.0
52.6	687.0
52.61	697.0
52.62	693.0
52.63	690.0
52.64	710.0
52.65	730.0
52.66	728.0
52.67	729.0
52.68	727.0
52.69	719.0
52.7	714.0
52.71	708.0
52.72	711.0
52.73	726.0
52.74	730.0
52.75	718.0
52.76	710.0
52.77	725.0
52.78	723.0
52.79	720.0
52.8	726.0
52.81	736.0
52.82	713.0
52.83	695.0
52.84	712.0
52.85	705.0
52.86	710.0
52.87	726.0
52.88	735.0
52.89	728.0
52.9	719.0
52.91	733.0
52.92	733.0
52.93	741.0
52.94	740.0
52.95	732.0
52.96	736.0
52.97	730.0
52.98	729.0
52.99	745.0
53.0	724.0
53.01	709.0
53.02	712.0
53.03	718.0
53.04	710.0
53.05	720.0
53.06	730.0
53.07	720.0
53.08	706.0
53.09	704.0
53.1	703.0
53.11	700.0
53.12	714.0
53.13	737.0
53.14	736.0
53.15	736.0
53.16	741.0
53.17	739.0
53.18	718.0
53.19	699.0
53.2	702.0
53.21	710.0
53.22	741.0
53.23	732.0
53.24	701.0
53.25	702.0
53.26	727.0
53.27	739.0
53.28	733.0
53.29	727.0
53.3	758.0
53.31	777.0
53.32	731.0
53.33	703.0
53.34	726.0
53.35	736.0
53.36	736.0
53.37	734.0
53.38	733.0
53.39	729.0
53.4	716.0
53.41	740.0
53.42	753.0
53.43	759.0
53.44	752.0
53.45	725.0
53.46	720.0
53.47	741.0
53.48	778.0
53.49	774.0
53.5	753.0
53.51	750.0
53.52	752.0
53.53	778.0
53.54	772.0
53.55	753.0
53.56	767.0
53.57	756.0
53.58	738.0
53.59	753.0
53.6	756.0
53.61	775.0
53.62	791.0
53.63	814.0
53.64	817.0
53.65	807.0
53.66	829.0
53.67	866.0
53.68	867.0
53.69	864.0
53.7	908.0
53.71	952.0
53.72	935.0
53.73	906.0
53.74	906.0
53.75	921.0
53.76	914.0
53.77	922.0
53.78	936.0
53.79	896.0
53.8	868.0
53.81	873.0
53.82	902.0
53.83	911.0
53.84	909.0
53.85	889.0
53.86	874.0
53.87	853.0
53.88	843.0
53.89	845.0
53.9	818.0
53.91	823.0
53.92	837.0
53.93	831.0
53.94	833.0
53.95	840.0
53.96	819.0
53.97	799.0
53.98	772.0
53.99	746.0
54.0	741.0
54.01	752.0
54.02	764.0
54.03	767.0
54.04	766.0
54.05	773.0
54.06	747.0
54.07	730.0
54.08	736.0
54.09	737.0
54.1	743.0
54.11	758.0
54.12	741.0
54.13	731.0
54.14	746.0
54.15	753.0
54.16	739.0
54.17	711.0
54.18	711.0
54.19	732.0
54.2	759.0
54.21	757.0
54.22	753.0
54.23	751.0
54.24	773.0
54.25	771.0
54.26	761.0
54.27	769.0
54.28	766.0
54.29	784.0
54.3	800.0
54.31	769.0
54.32	739.0
54.33	756.0
54.34	771.0
54.35	763.0
54.36	755.0
54.37	766.0
54.38	787.0
54.39	770.0
54.4	748.0
54.41	773.0
54.42	785.0
54.43	758.0
54.44	768.0
54.45	771.0
54.46	775.0
54.47	759.0
54.48	781.0
54.49	802.0
54.5	795.0
54.51	774.0
54.52	757.0
54.53	763.0
54.54	772.0
54.55	738.0
54.56	723.0
54.57	750.0
54.58	757.0
54.59	748.0
54.6	738.0
54.61	738.0
54.62	741.0
54.63	732.0
54.64	756.0
54.65	773.0
54.66	765.0
54.67	754.0
54.68	769.0
54.69	754.0
54.7	733.0
54.71	723.0
54.72	696.0
54.73	691.0
54.74	710.0
54.75	726.0
54.76	727.0
54.77	729.0
54.78	738.0
54.79	734.0
54.8	744.0
54.81	764.0
54.82	753.0
54.83	741.0
54.84	716.0
54.85	702.0
54.86	712.0
54.87	747.0
54.88	760.0
54.89	742.0
54.9	726.0
54.91	713.0
54.92	709.0
54.93	731.0
54.94	750.0
54.95	774.0
54.96	779.0
54.97	736.0
54.98	691.0
54.99	689.0
55.0	707.0
55.01	738.0
55.02	731.0
55.03	716.0
55.04	727.0
55.05	736.0
55.06	731.0
55.07	717.0
55.08	734.0
55.09	760.0
55.1	755.0
55.11	743.0
55.12	734.0
55.13	709.0
55.14	716.0
55.15	732.0
55.16	740.0
55.17	734.0
55.18	740.0
55.19	714.0
55.2	717.0
55.21	737.0
55.22	747.0
55.23	733.0
55.24	724.0
55.25	734.0
55.26	735.0
55.27	748.0
55.28	770.0
55.29	761.0
55.3	779.0
55.31	793.0
55.32	767.0
55.33	745.0
55.34	729.0
55.35	735.0
55.36	758.0
55.37	739.0
55.38	729.0
55.39	758.0
55.4	765.0
55.41	765.0
55.42	767.0
55.43	775.0
55.44	772.0
55.45	760.0
55.46	749.0
55.47	751.0
55.48	748.0
55.49	735.0
55.5	746.0
55.51	765.0
55.52	757.0
55.53	744.0
55.54	751.0
55.55	776.0
55.56	769.0
55.57	761.0
55.58	775.0
55.59	781.0
55.6	772.0
55.61	759.0
55.62	749.0
55.63	751.0
55.64	758.0
55.65	750.0
55.66	751.0
55.67	764.0
55.68	782.0
55.69	773.0
55.7	786.0
55.71	785.0
55.72	797.0
55.73	763.0
55.74	770.0
55.75	761.0
55.76	765.0
55.77	766.0
55.78	775.0
55.79	776.0
55.8	791.0
55.81	800.0
55.82	797.0
55.83	792.0
55.84	793.0
55.85	781.0
55.86	795.0
55.87	809.0
55.88	777.0
55.89	760.0
55.9	782.0
55.91	808.0
55.92	806.0
55.93	799.0
55.94	806.0
55.95	797.0
55.96	793.0
55.97	779.0
55.98	776.0
55.99	784.0
56.0	805.0
56.01	796.0
56.02	754.0
56.03	741.0
56.04	769.0
56.05	790.0
56.06	808.0
56.07	825.0
56.08	816.0
56.09	800.0
56.1	816.0
56.11	808.0
56.12	791.0
56.13	777.0
56.14	777.0
56.15	781.0
56.16	789.0
56.17	827.0
56.18	842.0
56.19	830.0
56.2	784.0
56.21	780.0
56.22	802.0
56.23	797.0
56.24	791.0
56.25	790.0
56.26	797.0
56.27	804.0
56.28	825.0
56.29	831.0
56.3	826.0
56.31	832.0
56.32	834.0
56.33	820.0
56.34	816.0
56.35	832.0
56.36	823.0
56.37	839.0
56.38	833.0
56.39	830.0
56.4	842.0
56.41	856.0
56.42	852.0
56.43	817.0
56.44	818.0
56.45	856.0
56.46	844.0
56.47	836.0
56.48	839.0
56.49	854.0
56.5	843.0
56.51	818.0
56.52	816.0
56.53	826.0
56.54	849.0
56.55	835.0
56.56	829.0
56.57	854.0
56.58	873.0
56.59	867.0
56.6	858.0
56.61	874.0
56.62	897.0
56.63	863.0
56.64	879.0
56.65	900.0
56.66	892.0
56.67	881.0
56.68	897.0
56.69	898.0
56.7	886.0
56.71	886.0
56.72	859.0
56.73	837.0
56.74	821.0
56.75	848.0
56.76	873.0
56.77	888.0
56.78	909.0
56.79	917.0
56.8	920.0
56.81	929.0
56.82	914.0
56.83	897.0
56.84	895.0
56.85	893.0
56.86	878.0
56.87	868.0
56.88	881.0
56.89	920.0
56.9	947.0
56.91	957.0
56.92	950.0
56.93	960.0
56.94	960.0
56.95	937.0
56.96	941.0
56.97	969.0
56.98	985.0
56.99	1003.0
57.0	1025.0
57.01	1021.0
57.02	1014.0
57.03	1010.0
57.04	1022.0
57.05	1070.0
57.06	1076.0
57.07	1077.0
57.08	1117.0
57.09	1172.0
57.1	1178.0
57.11	1205.0
57.12	1260.0
57.13	1333.0
57.14	1428.0
57.15	1511.0
57.16	1601.0
57.17	1700.0
57.18	1833.0
57.19	2028.0
57.2	2231.0
57.21	2404.0
57.22	2595.0
57.23	2854.0
57.24	3051.0
57.25	3183.0
57.26	3208.0
57.27	3299.0
57.28	3419.0
57.29	3410.0
57.3	3356.0
57.31	3293.0
57.32	3209.0
57.33	3117.0
57.34	3038.0
57.35	2984.0
57.36	2882.0
57.37	2839.0
57.38	2762.0
57.39	2715.0
57.4	2648.0
57.41	2612.0
57.42	2536.0
57.43	2524.0
57.44	2550.0
57.45	2448.0
57.46	2338.0
57.47	2244.0
57.48	2143.0
57.49	2010.0
57.5	1910.0
57.51	1812.0
57.52	1721.0
57.53	1616.0
57.54	1560.0
57.55	1536.0
57.56	1434.0
57.57	1325.0
57.58	1298.0
57.59	1317.0
57.6	1248.0
57.61	1169.0
57.62	1108.0
57.63	1091.0
57.64	1091.0
57.65	1041.0
57.66	1036.0
57.67	1047.0
57.68	991.0
57.69	972.0
57.7	998.0
57.71	995.0
57.72	984.0
57.73	1002.0
57.74	982.0
57.75	952.0
57.76	948.0
57.77	945.0
57.78	928.0
57.79	938.0
57.8	948.0
57.81	925.0
57.82	925.0
57.83	914.0
57.84	886.0
57.85	884.0
57.86	909.0
57.87	884.0
57.88	876.0
57.89	884.0
57.9	868.0
57.91	864.0
57.92	862.0
57.93	865.0
57.94	863.0
57.95	845.0
57.96	834.0
57.97	828.0
57.98	849.0
57.99	854.0
58.0	835.0
58.01	841.0
58.02	828.0
58.03	856.0
58.04	857.0
58.05	808.0
58.06	828.0
58.07	815.0
58.08	810.0
58.09	829.0
58.1	836.0
58.11	824.0
58.12	818.0
58.13	825.0
58.14	811.0
58.15	796.0
58.16	811.0
58.17	813.0
58.18	789.0
58.19	782.0
58.2	779.0
58.21	772.0
58.22	762.0
58.23	776.0
58.24	814.0
58.25	819.0
58.26	802.0
58.27	768.0
58.28	754.0
58.29	768.0
58.3	795.0
58.31	810.0
58.32	821.0
58.33	777.0
58.34	733.0
58.35	750.0
58.36	755.0
58.37	773.0
58.38	791.0
58.39	770.0
58.4	782.0
58.41	789.0
58.42	761.0
58.43	760.0
58.44	771.0
58.45	795.0
58.46	779.0
58.47	778.0
58.48	794.0
58.49	775.0
58.5	773.0
58.51	778.0
58.52	790.0
58.53	780.0
58.54	769.0
58.55	780.0
58.56	786.0
58.57	780.0
58.58	767.0
58.59	762.0
58.6	774.0
58.61	781.0
58.62	767.0
58.63	769.0
58.64	768.0
58.65	768.0
58.66	771.0
58.67	768.0
58.68	778.0
58.69	763.0
58.7	757.0
58.71	773.0
58.72	783.0
58.73	793.0
58.74	802.0
58.75	800.0
58.76	788.0
58.77	789.0
58.78	797.0
58.79	797.0
58.8	790.0
58.81	801.0
58.82	788.0
58.83	778.0
58.84	791.0
58.85	815.0
58.86	816.0
58.87	759.0
58.88	765.0
58.89	775.0
58.9	754.0
58.91	794.0
58.92	792.0
58.93	785.0
58.94	748.0
58.95	768.0
58.96	794.0
58.97	767.0
58.98	758.0
58.99	761.0
59.0	764.0
59.01	788.0
59.02	776.0
59.03	764.0
59.04	776.0
59.05	765.0
59.06	758.0
59.07	751.0
59.08	769.0
59.09	755.0
59.1	755.0
59.11	776.0
59.12	771.0
59.13	762.0
59.14	778.0
59.15	782.0
59.16	793.0
59.17	797.0
59.18	790.0
59.19	769.0
59.2	774.0
59.21	812.0
59.22	802.0
59.23	768.0
59.24	769.0
59.25	785.0
59.26	804.0
59.27	786.0
59.28	781.0
59.29	784.0
59.3	799.0
59.31	793.0
59.32	780.0
59.33	785.0
59.34	801.0
59.35	804.0
59.36	771.0
59.37	774.0
59.38	776.0
59.39	775.0
59.4	809.0
59.41	839.0
59.42	820.0
59.43	770.0
59.44	782.0
59.45	794.0
59.46	796.0
59.47	800.0
59.48	796.0
59.49	783.0
59.5	781.0
59.51	783.0
59.52	794.0
59.53	776.0
59.54	789.0
59.55	809.0
59.56	821.0
59.57	807.0
59.58	769.0
59.59	795.0
59.6	782.0
59.61	768.0
59.62	770.0
59.63	801.0
59.64	802.0
59.65	797.0
59.66	800.0
59.67	810.0
59.68	788.0
59.69	789.0
59.7	809.0
59.71	798.0
59.72	784.0
59.73	806.0
59.74	783.0
59.75	808.0
59.76	829.0
59.77	792.0
59.78	778.0
59.79	786.0
59.8	792.0
59.81	786.0
59.82	770.0
59.83	760.0
59.84	775.0
59.85	775.0
59.86	784.0
59.87	757.0
59.88	771.0
59.89	763.0
59.9	736.0
59.91	779.0
59.92	763.0
59.93	774.0
59.94	801.0
59.95	785.0
59.96	787.0
59.97	781.0
59.98	745.0
59.99	740.0
60.0	740.0
60.01	756.0
60.02	779.0
60.03	780.0
60.04	768.0
60.05	799.0
60.06	786.0
60.07	743.0
60.08	739.0
60.09	784.0
60.1	787.0
60.11	804.0
60.12	777.0
60.13	754.0
60.14	748.0
60.15	777.0
60.16	780.0
60.17	771.0
60.18	757.0
60.19	778.0
60.2	785.0
60.21	779.0
60.22	777.0
60.23	763.0
60.24	771.0
60.25	779.0
60.26	775.0
60.27	786.0
60.28	793.0
60.29	793.0
60.3	783.0
60.31	795.0
60.32	779.0
60.33	750.0
60.34	784.0
60.35	800.0
60.36	749.0
60.37	749.0
60.38	781.0
60.39	784.0
60.4	788.0
60.41	783.0
60.42	772.0
60.43	778.0
60.44	785.0
60.45	792.0
60.46	794.0
60.47	807.0
60.48	830.0
60.49	809.0
60.5	780.0
60.51	772.0
60.52	796.0
60.53	773.0
60.54	808.0
60.55	809.0
60.56	803.0
60.57	782.0
60.58	795.0
60.59	809.0
60.6	817.0
60.61	799.0
60.62	809.0
60.63	814.0
60.64	786.0
60.65	793.0
60.66	815.0
60.67	825.0
60.68	812.0
60.69	792.0
60.7	822.0
60.71	807.0
60.72	782.0
60.73	804.0
60.74	827.0
60.75	816.0
60.76	787.0
60.77	784.0
60.78	804.0
60.79	782.0
60.8	786.0
60.81	796.0
60.82	803.0
60.83	790.0
60.84	806.0
60.85	823.0
60.86	841.0
60.87	805.0
60.88	787.0
60.89	779.0
60.9	763.0
60.91	782.0
60.92	785.0
60.93	787.0
60.94	793.0
60.95	778.0
60.96	759.0
60.97	760.0
60.98	778.0
60.99	757.0
61.0	743.0
61.01	783.0
61.02	798.0
61.03	785.0
61.04	795.0
61.05	827.0
61.06	805.0
61.07	786.0
61.08	772.0
61.09	774.0
61.1	758.0
61.11	779.0
61.12	788.0
61.13	790.0
61.14	768.0
61.15	767.0
61.16	764.0
61.17	778.0
61.18	776.0
61.19	770.0
61.2	767.0
61.21	772.0
61.22	775.0
61.23	777.0
61.24	787.0
61.25	775.0
61.26	787.0
61.27	776.0
61.28	776.0
61.29	777.0
61.3	787.0
61.31	786.0
61.32	769.0
61.33	760.0
61.34	758.0
61.35	761.0
61.36	779.0
61.37	778.0
61.38	787.0
61.39	786.0
61.4	773.0
61.41	790.0
61.42	808.0
61.43	772.0
61.44	764.0
61.45	769.0
61.46	809.0
61.47	774.0
61.48	764.0
61.49	790.0
61.5	774.0
61.51	767.0
61.52	775.0
61.53	789.0
61.54	790.0
61.55	792.0
61.56	793.0
61.57	781.0
61.58	761.0
61.59	757.0
61.6	761.0
61.61	809.0
61.62	793.0
61.63	815.0
61.64	807.0
61.65	791.0
61.66	803.0
61.67	777.0
61.68	761.0
61.69	781.0
61.7	770.0
61.71	767.0
61.72	786.0
61.73	785.0
61.74	803.0
61.75	830.0
61.76	808.0
61.77	801.0
61.78	762.0
61.79	791.0
61.8	803.0
61.81	816.0
61.82	789.0
61.83	795.0
61.84	791.0
61.85	804.0
61.86	851.0
61.87	865.0
61.88	827.0
61.89	815.0
61.9	795.0
61.91	797.0
61.92	794.0
61.93	813.0
61.94	823.0
61.95	837.0
61.96	824.0
61.97	842.0
61.98	871.0
61.99	866.0
62.0	864.0
62.01	807.0
62.02	824.0
62.03	836.0
62.04	841.0
62.05	845.0
62.06	835.0
62.07	840.0
62.08	832.0
62.09	854.0
62.1	861.0
62.11	851.0
62.12	864.0
62.13	891.0
62.14	855.0
62.15	849.0
62.16	889.0
62.17	895.0
62.18	866.0
62.19	880.0
62.2	888.0
62.21	918.0
62.22	939.0
62.23	896.0
62.24	910.0
62.25	877.0
62.26	902.0
62.27	911.0
62.28	975.0
62.29	948.0
62.3	934.0
62.31	938.0
62.32	942.0
62.33	906.0
62.34	933.0
62.35	957.0
62.36	946.0
62.37	952.0
62.38	955.0
62.39	929.0
62.4	937.0
62.41	968.0
62.42	988.0
62.43	972.0
62.44	1017.0
62.45	1032.0
62.46	1019.0
62.47	1040.0
62.48	1047.0
62.49	1074.0
62.5	1085.0
62.51	1048.0
62.52	1069.0
62.53	1070.0
62.54	1086.0
62.55	1124.0
62.56	1129.0
62.57	1132.0
62.58	1131.0
62.59	1143.0
62.6	1125.0
62.61	1128.0
62.62	1185.0
62.63	1170.0
62.64	1207.0
62.65	1225.0
62.66	1252.0
62.67	1294.0
62.68	1311.0
62.69	1345.0
62.7	1373.0
62.71	1458.0
62.72	1521.0
62.73	1545.0
62.74	1672.0
62.75	1741.0
62.76	1809.0
62.77	1977.0
62.78	2189.0
62.79	2322.0
62.8	2626.0
62.81	2932.0
62.82	3196.0
62.83	3501.0
62.84	3825.0
62.85	4073.0
62.86	4326.0
62.87	4493.0
62.88	4585.0
62.89	4683.0
62.9	4777.0
62.91	4727.0
62.92	4656.0
62.93	4573.0
62.94	4424.0
62.95	4298.0
62.96	4177.0
62.97	4002.0
62.98	3872.0
62.99	3835.0
63.0	3757.0
63.01	3720.0
63.02	3696.0
63.03	3597.0
63.04	3601.0
63.05	3599.0
63.06	3557.0
63.07	3531.0
63.08	3405.0
63.09	3285.0
63.1	3141.0
63.11	3046.0
63.12	2856.0
63.13	2635.0
63.14	2562.0
63.15	2448.0
63.16	2356.0
63.17	2250.0
63.18	2094.0
63.19	1967.0
63.2	1894.0
63.21	1769.0
63.22	1710.0
63.23	1680.0
63.24	1624.0
63.25	1532.0
63.26	1443.0
63.27	1372.0
63.28	1347.0
63.29	1333.0
63.3	1292.0
63.31	1273.0
63.32	1228.0
63.33	1214.0
63.34	1224.0
63.35	1192.0
63.36	1165.0
63.37	1185.0
63.38	1164.0
63.39	1156.0
63.4	1119.0
63.41	1096.0
63.42	1131.0
63.43	1118.0
63.44	1088.0
63.45	1058.0
63.46	1027.0
63.47	1032.0
63.48	1046.0
63.49	1023.0
63.5	993.0
63.51	1018.0
63.52	1012.0
63.53	981.0
63.54	995.0
63.55	938.0
63.56	956.0
63.57	955.0
63.58	944.0
63.59	945.0
63.6	916.0
63.61	927.0
63.62	917.0
63.63	931.0
63.64	915.0
63.65	916.0
63.66	907.0
63.67	904.0
63.68	898.0
63.69	880.0
63.7	860.0
63.71	871.0
63.72	855.0
63.73	872.0
63.74	879.0
63.75	865.0
63.76	857.0
63.77	879.0
63.78	871.0
63.79	861.0
63.8	859.0
63.81	868.0
63.82	889.0
63.83	901.0
63.84	854.0
63.85	833.0
63.86	863.0
63.87	864.0
63.88	829.0
63.89	823.0
63.9	849.0
63.91	842.0
63.92	801.0
63.93	795.0
63.94	810.0
63.95	820.0
63.96	861.0
63.97	841.0
63.98	845.0
63.99	790.0
64.0	796.0
64.01	835.0
64.02	789.0
64.03	780.0
64.04	823.0
64.05	853.0
64.06	819.0
64.07	796.0
64.08	802.0
64.09	798.0
64.1	799.0
64.11	811.0
64.12	789.0
64.13	787.0
64.14	823.0
64.15	782.0
64.16	765.0
64.17	792.0
64.18	753.0
64.19	782.0
64.2	801.0
64.21	837.0
64.22	784.0
64.23	817.0
64.24	816.0
64.25	782.0
64.26	793.0
64.27	803.0
64.28	799.0
64.29	806.0
64.3	801.0
64.31	781.0
64.32	798.0
64.33	788.0
64.34	786.0
64.35	773.0
64.36	789.0
64.37	820.0
64.38	777.0
64.39	814.0
64.4	803.0
64.41	798.0
64.42	777.0
64.43	766.0
64.44	757.0
64.45	762.0
64.46	742.0
64.47	755.0
64.48	783.0
64.49	782.0
64.5	753.0
64.51	749.0
64.52	754.0
64.53	755.0
64.54	754.0
64.55	773.0
64.56	751.0
64.57	728.0
64.58	747.0
64.59	735.0
64.6	745.0
64.61	752.0
64.62	765.0
64.63	790.0
64.64	779.0
64.65	774.0
64.66	776.0
64.67	806.0
64.68	761.0
64.69	753.0
64.7	756.0
64.71	765.0
64.72	787.0
64.73	755.0
64.74	774.0
64.75	800.0
64.76	777.0
64.77	777.0
64.78	760.0
64.79	714.0
64.8	704.0
64.81	742.0
64.82	723.0
64.83	754.0
64.84	744.0
64.85	723.0
64.86	781.0
64.87	757.0
64.88	729.0
64.89	732.0
64.9	781.0
64.91	791.0
64.92	775.0
64.93	794.0
64.94	780.0
64.95	764.0
64.96	742.0
64.97	712.0
64.98	753.0
64.99	765.0
65.0	757.0
65.01	789.0
65.02	738.0
65.03	744.0
65.04	765.0
65.05	746.0
65.06	778.0
65.07	761.0
65.08	748.0
65.09	765.0
65.1	723.0
65.11	761.0
65.12	796.0
65.13	778.0
65.14	730.0
65.15	741.0
65.16	747.0
65.17	751.0
65.18	727.0
65.19	762.0
65.2	775.0
65.21	760.0
65.22	740.0
65.23	743.0
65.24	723.0
65.25	773.0
65.26	754.0
65.27	759.0
65.28	745.0
65.29	749.0
65.3	763.0
65.31	750.0
65.32	773.0
65.33	756.0
65.34	745.0
65.35	759.0
65.36	777.0
65.37	778.0
65.38	742.0
65.39	726.0
65.4	761.0
65.41	750.0
65.42	764.0
65.43	796.0
65.44	729.0
65.45	786.0
65.46	771.0
65.47	785.0
65.48	801.0
65.49	785.0
65.5	736.0
65.51	749.0
65.52	786.0
65.53	764.0
65.54	736.0
65.55	765.0
65.56	757.0
65.57	767.0
65.58	803.0
65.59	760.0
65.6	717.0
65.61	756.0
65.62	738.0
65.63	778.0
65.64	794.0
65.65	758.0
65.66	758.0
65.67	778.0
65.68	819.0
65.69	812.0
65.7	783.0
65.71	790.0
65.72	805.0
65.73	811.0
65.74	808.0
65.75	785.0
65.76	773.0
65.77	786.0
65.78	794.0
65.79	828.0
65.8	846.0
65.81	818.0
65.82	810.0
65.83	828.0
65.84	812.0
65.85	801.0
65.86	811.0
65.87	849.0
65.88	821.0
65.89	816.0
65.9	838.0
65.91	866.0
65.92	866.0
65.93	852.0
65.94	840.0
65.95	840.0
65.96	916.0
65.97	926.0
65.98	951.0
65.99	954.0
66.0	930.0
66.01	948.0
66.02	1035.0
66.03	1099.0
66.04	1133.0
66.05	1178.0
66.06	1214.0
66.07	1331.0
66.08	1331.0
66.09	1380.0
66.1	1392.0
66.11	1382.0
66.12	1419.0
66.13	1462.0
66.14	1434.0
66.15	1478.0
66.16	1450.0
66.17	1406.0
66.18	1386.0
66.19	1446.0
66.2	1414.0
66.21	1412.0
66.22	1361.0
66.23	1323.0
66.24	1312.0
66.25	1310.0
66.26	1298.0
66.27	1297.0
66.28	1254.0
66.29	1278.0
66.3	1289.0
66.31	1301.0
66.32	1243.0
66.33	1208.0
66.34	1164.0
66.35	1174.0
66.36	1178.0
66.37	1137.0
66.38	1132.0
66.39	1120.0
66.4	1092.0
66.41	1073.0
66.42	1053.0
66.43	983.0
66.44	964.0
66.45	980.0
66.46	986.0
66.47	973.0
66.48	931.0
66.49	877.0
66.5	922.0
66.51	906.0
66.52	875.0
66.53	834.0
66.54	859.0
66.55	899.0
66.56	892.0
66.57	850.0
66.58	864.0
66.59	866.0
66.6	851.0
66.61	845.0
66.62	830.0
66.63	821.0
66.64	823.0
66.65	863.0
66.66	861.0
66.67	820.0
66.68	815.0
66.69	823.0
66.7	810.0
66.71	791.0
66.72	804.0
66.73	795.0
66.74	798.0
66.75	776.0
66.76	776.0
66.77	776.0
66.78	781.0
66.79	791.0
66.8	787.0
66.81	831.0
66.82	804.0
66.83	782.0
66.84	788.0
66.85	814.0
66.86	821.0
66.87	801.0
66.88	784.0
66.89	778.0
66.9	773.0
66.91	787.0
66.92	777.0
66.93	782.0
66.94	771.0
66.95	749.0
66.96	780.0
66.97	780.0
66.98	758.0
66.99	727.0
67.0	735.0
67.01	727.0
67.02	729.0
67.03	753.0
67.04	758.0
67.05	754.0
67.06	749.0
67.07	737.0
67.08	757.0
67.09	777.0
67.1	758.0
67.11	749.0
67.12	767.0
67.13	769.0
67.14	772.0
67.15	750.0
67.16	765.0
67.17	784.0
67.18	757.0
67.19	742.0
67.2	759.0
67.21	762.0
67.22	777.0
67.23	740.0
67.24	731.0
67.25	767.0
67.26	778.0
67.27	755.0
67.28	763.0
67.29	777.0
67.3	770.0
67.31	755.0
67.32	775.0
67.33	753.0
67.34	750.0
67.35	731.0
67.36	703.0
67.37	757.0
67.38	798.0
67.39	791.0
67.4	753.0
67.41	707.0
67.42	756.0
67.43	760.0
67.44	761.0
67.45	757.0
67.46	751.0
67.47	746.0
67.48	756.0
67.49	747.0
67.5	732.0
67.51	723.0
67.52	727.0
67.53	725.0
67.54	733.0
67.55	747.0
67.56	730.0
67.57	760.0
67.58	753.0
67.59	759.0
67.6	765.0
67.61	757.0
67.62	773.0
67.63	753.0
67.64	725.0
67.65	697.0
67.66	727.0
67.67	755.0
67.68	757.0
67.69	731.0
67.7	743.0
67.71	742.0
67.72	741.0
67.73	738.0
67.74	735.0
67.75	751.0
67.76	759.0
67.77	766.0
67.78	707.0
67.79	772.0
67.8	757.0
67.81	755.0
67.82	772.0
67.83	796.0
67.84	740.0
67.85	733.0
67.86	737.0
67.87	761.0
67.88	760.0
67.89	701.0
67.9	709.0
67.91	721.0
67.92	699.0
67.93	701.0
67.94	740.0
67.95	756.0
67.96	748.0
67.97	762.0
67.98	730.0
67.99	752.0
68.0	738.0
68.01	719.0
68.02	738.0
68.03	745.0
68.04	737.0
68.05	745.0
68.06	762.0
68.07	743.0
68.08	769.0
68.09	748.0
68.1	740.0
68.11	755.0
68.12	767.0
68.13	763.0
68.14	748.0
68.15	747.0
68.16	729.0
68.17	716.0
68.18	748.0
68.19	784.0
68.2	763.0
68.21	765.0
68.22	763.0
68.23	716.0
68.24	788.0
68.25	755.0
68.26	703.0
68.27	720.0
68.28	725.0
68.29	715.0
68.3	739.0
68.31	750.0
68.32	747.0
68.33	771.0
68.34	738.0
68.35	730.0
68.36	720.0
68.37	711.0
68.38	705.0
68.39	733.0
68.4	774.0
68.41	756.0
68.42	767.0
68.43	793.0
68.44	731.0
68.45	731.0
68.46	741.0
68.47	746.0
68.48	769.0
68.49	757.0
68.5	752.0
68.51	776.0
68.52	752.0
68.53	738.0
68.54	759.0
68.55	754.0
68.56	742.0
68.57	740.0
68.58	746.0
68.59	722.0
68.6	722.0
68.61	746.0
68.62	729.0
68.63	734.0
68.64	787.0
68.65	776.0
68.66	718.0
68.67	728.0
68.68	749.0
68.69	760.0
68.7	755.0
68.71	752.0
68.72	765.0
68.73	736.0
68.74	698.0
68.75	732.0
68.76	766.0
68.77	758.0
68.78	726.0
68.79	755.0
68.8	732.0
68.81	725.0
68.82	760.0
68.83	771.0
68.84	748.0
68.85	753.0
68.86	753.0
68.87	770.0
68.88	770.0
68.89	748.0
68.9	731.0
68.91	722.0
68.92	736.0
68.93	765.0
68.94	731.0
68.95	683.0
68.96	722.0
68.97	747.0
68.98	754.0
68.99	755.0
69.0	726.0
69.01	748.0
69.02	779.0
69.03	748.0
69.04	749.0
69.05	750.0
69.06	740.0
69.07	737.0
69.08	741.0
69.09	725.0
69.1	746.0
69.11	781.0
69.12	791.0
69.13	759.0
69.14	747.0
69.15	749.0
69.16	757.0
69.17	753.0
69.18	744.0
69.19	754.0
69.2	750.0
69.21	755.0
69.22	714.0
69.23	744.0
69.24	754.0
69.25	736.0
69.26	788.0
69.27	751.0
69.28	751.0
69.29	740.0
69.3	735.0
69.31	741.0
69.32	751.0
69.33	739.0
69.34	720.0
69.35	738.0
69.36	776.0
69.37	785.0
69.38	763.0
69.39	747.0
69.4	747.0
69.41	738.0
69.42	734.0
69.43	753.0
69.44	749.0
69.45	767.0
69.46	759.0
69.47	733.0
69.48	722.0
69.49	781.0
69.5	727.0
69.51	735.0
69.52	760.0
69.53	760.0
69.54	724.0
69.55	718.0
69.56	740.0
69.57	740.0
69.58	722.0
69.59	700.0
69.6	719.0
69.61	733.0
69.62	727.0
69.63	719.0
69.64	745.0
69.65	739.0
69.66	718.0
69.67	711.0
69.68	703.0
69.69	690.0
69.7	696.0
69.71	719.0
69.72	719.0
69.73	699.0
69.74	693.0
69.75	738.0
69.76	712.0
69.77	737.0
69.78	761.0
69.79	746.0
69.8	710.0
69.81	704.0
69.82	714.0
69.83	711.0
69.84	713.0
69.85	715.0
69.86	752.0
69.87	735.0
69.88	729.0
69.89	722.0
69.9	712.0
69.91	719.0
69.92	737.0
69.93	751.0
69.94	741.0
69.95	730.0
69.96	731.0
69.97	739.0
69.98	727.0
69.99	728.0
70.0	732.0
70.01	757.0
70.02	725.0
70.03	690.0
70.04	722.0
70.05	708.0
70.06	721.0
70.07	729.0
70.08	758.0
70.09	704.0
70.1	736.0
70.11	729.0
70.12	746.0
70.13	742.0
70.14	700.0
70.15	706.0
70.16	728.0
70.17	744.0
70.18	721.0
70.19	699.0
70.2	713.0
70.21	720.0
70.22	726.0
70.23	727.0
70.24	720.0
70.25	698.0
70.26	699.0
70.27	706.0
70.28	707.0
70.29	741.0
70.3	721.0
70.31	702.0
70.32	709.0
70.33	696.0
70.34	732.0
70.35	722.0
70.36	737.0
70.37	713.0
70.38	695.0
70.39	712.0
70.4	719.0
70.41	710.0
70.42	705.0
70.43	704.0
70.44	719.0
70.45	705.0
70.46	744.0
70.47	737.0
70.48	709.0
70.49	710.0
70.5	716.0
70.51	741.0
70.52	696.0
70.53	707.0
70.54	697.0
70.55	666.0
70.56	723.0
70.57	718.0
70.58	711.0
70.59	676.0
70.6	670.0
70.61	741.0
70.62	734.0
70.63	714.0
70.64	715.0
70.65	720.0
70.66	725.0
70.67	745.0
70.68	746.0
70.69	734.0
70.7	676.0
70.71	690.0
70.72	679.0
70.73	689.0
70.74	712.0
70.75	738.0
70.76	731.0
70.77	723.0
70.78	722.0
70.79	723.0
70.8	720.0
70.81	724.0
70.82	717.0
70.83	714.0
70.84	690.0
70.85	697.0
70.86	716.0
70.87	720.0
70.88	730.0
70.89	737.0
70.9	740.0
70.91	737.0
70.92	719.0
70.93	713.0
70.94	687.0
70.95	708.0
70.96	723.0
70.97	720.0
70.98	747.0
70.99	739.0
71.0	694.0
71.01	691.0
71.02	724.0
71.03	738.0
71.04	724.0
71.05	732.0
71.06	718.0
71.07	710.0
71.08	708.0
71.09	710.0
71.1	742.0
71.11	711.0
71.12	678.0
71.13	725.0
71.14	754.0
71.15	732.0
71.16	727.0
71.17	734.0
71.18	721.0
71.19	696.0
71.2	723.0
71.21	752.0
71.22	731.0
71.23	709.0
71.24	708.0
71.25	715.0
71.26	718.0
71.27	732.0
71.28	724.0
71.29	748.0
71.3	778.0
71.31	752.0
71.32	754.0
71.33	731.0
71.34	762.0
71.35	777.0
71.36	720.0
71.37	728.0
71.38	758.0
71.39	754.0
71.4	728.0
71.41	747.0
71.42	771.0
71.43	776.0
71.44	763.0
71.45	757.0
71.46	756.0
71.47	737.0
71.48	754.0
71.49	762.0
71.5	747.0
71.51	740.0
71.52	770.0
71.53	778.0
71.54	763.0
71.55	778.0
71.56	751.0
71.57	733.0
71.58	729.0
71.59	700.0
71.6	719.0
71.61	710.0
71.62	715.0
71.63	719.0
71.64	736.0
71.65	776.0
71.66	766.0
71.67	724.0
71.68	707.0
71.69	692.0
71.7	675.0
71.71	668.0
71.72	708.0
71.73	736.0
71.74	719.0
71.75	715.0
71.76	702.0
71.77	688.0
71.78	707.0
71.79	724.0
71.8	714.0
71.81	698.0
71.82	719.0
71.83	753.0
71.84	762.0
71.85	692.0
71.86	708.0
71.87	729.0
71.88	701.0
71.89	676.0
71.9	689.0
71.91	706.0
71.92	713.0
71.93	719.0
71.94	712.0
71.95	698.0
71.96	685.0
71.97	681.0
71.98	680.0
71.99	687.0
72.0	698.0
72.01	739.0
72.02	712.0
72.03	683.0
72.04	702.0
72.05	721.0
72.06	728.0
72.07	739.0
72.08	746.0
72.09	725.0
72.1	707.0
72.11	695.0
72.12	692.0
72.13	709.0
72.14	716.0
72.15	699.0
72.16	693.0
72.17	701.0
72.18	703.0
72.19	697.0
72.2	686.0
72.21	730.0
72.22	710.0
72.23	726.0
72.24	703.0
72.25	715.0
72.26	748.0
72.27	712.0
72.28	719.0
72.29	709.0
72.3	702.0
72.31	683.0
72.32	710.0
72.33	734.0
72.34	720.0
72.35	679.0
72.36	699.0
72.37	712.0
72.38	710.0
72.39	687.0
72.4	686.0
72.41	715.0
72.42	738.0
72.43	724.0
72.44	707.0
72.45	725.0
72.46	689.0
72.47	722.0
72.48	685.0
72.49	713.0
72.5	718.0
72.51	701.0
72.52	714.0
72.53	689.0
72.54	693.0
72.55	694.0
72.56	685.0
72.57	707.0
72.58	713.0
72.59	730.0
72.6	719.0
72.61	713.0
72.62	714.0
72.63	697.0
72.64	700.0
72.65	702.0
72.66	688.0
72.67	705.0
72.68	725.0
72.69	712.0
72.7	696.0
72.71	712.0
72.72	725.0
72.73	730.0
72.74	732.0
72.75	701.0
72.76	704.0
72.77	727.0
72.78	707.0
72.79	706.0
72.8	721.0
72.81	732.0
72.82	721.0
72.83	705.0
72.84	718.0
72.85	718.0
72.86	701.0
72.87	716.0
72.88	708.0
72.89	706.0
72.9	678.0
72.91	686.0
72.92	687.0
72.93	696.0
72.94	723.0
72.95	706.0
72.96	711.0
72.97	717.0
72.98	689.0
72.99	682.0
73.0	715.0
73.01	708.0
73.02	704.0
73.03	711.0
73.04	700.0
73.05	700.0
73.06	729.0
73.07	718.0
73.08	738.0
73.09	695.0
73.1	715.0
73.11	688.0
73.12	720.0
73.13	749.0
73.14	735.0
73.15	728.0
73.16	711.0
73.17	661.0
73.18	681.0
73.19	714.0
73.2	723.0
73.21	712.0
73.22	712.0
73.23	709.0
73.24	716.0
73.25	705.0
73.26	719.0
73.27	723.0
73.28	711.0
73.29	738.0
73.3	762.0
73.31	747.0
73.32	739.0
73.33	749.0
73.34	757.0
73.35	752.0
73.36	747.0
73.37	701.0
73.38	701.0
73.39	697.0
73.4	714.0
73.41	721.0
73.42	706.0
73.43	702.0
73.44	698.0
73.45	681.0
73.46	691.0
73.47	713.0
73.48	753.0
73.49	762.0
73.5	719.0
73.51	754.0
73.52	713.0
73.53	680.0
73.54	685.0
73.55	719.0
73.56	739.0
73.57	738.0
73.58	747.0
73.59	724.0
73.6	695.0
73.61	740.0
73.62	768.0
73.63	723.0
73.64	704.0
73.65	711.0
73.66	724.0
73.67	734.0
73.68	757.0
73.69	753.0
73.7	694.0
73.71	692.0
73.72	710.0
73.73	704.0
73.74	742.0
73.75	738.0
73.76	745.0
73.77	747.0
73.78	756.0
73.79	750.0
73.8	744.0
73.81	759.0
73.82	754.0
73.83	755.0
73.84	735.0
73.85	766.0
73.86	767.0
73.87	773.0
73.88	715.0
73.89	706.0
73.9	730.0
73.91	714.0
73.92	732.0
73.93	778.0
73.94	777.0
73.95	754.0
73.96	749.0
73.97	762.0
73.98	789.0
73.99	751.0
74.0	769.0
74.01	771.0
74.02	766.0
74.03	765.0
74.04	762.0
74.05	787.0
74.06	750.0
74.07	760.0
74.08	779.0
74.09	753.0
74.1	757.0
74.11	759.0
74.12	785.0
74.13	747.0
74.14	762.0
74.15	756.0
74.16	754.0
74.17	748.0
74.18	764.0
74.19	754.0
74.2	779.0
74.21	824.0
74.22	835.0
74.23	803.0
74.24	811.0
74.25	846.0
74.26	887.0
74.27	927.0
74.28	930.0
74.29	971.0
74.3	992.0
74.31	1016.0
74.32	1036.0
74.33	1098.0
74.34	1114.0
74.35	1126.0
74.36	1184.0
74.37	1219.0
74.38	1179.0
74.39	1196.0
74.4	1220.0
74.41	1216.0
74.42	1246.0
74.43	1196.0
74.44	1169.0
74.45	1198.0
74.46	1208.0
74.47	1156.0
74.48	1131.0
74.49	1114.0
74.5	1083.0
74.51	1124.0
74.52	1107.0
74.53	1081.0
74.54	1093.0
74.55	1053.0
74.56	1057.0
74.57	1056.0
74.58	1058.0
74.59	1081.0
74.6	1070.0
74.61	1022.0
74.62	1001.0
74.63	1034.0
74.64	1043.0
74.65	1029.0
74.66	1006.0
74.67	972.0
74.68	993.0
74.69	957.0
74.7	972.0
74.71	955.0
74.72	922.0
74.73	909.0
74.74	890.0
74.75	899.0
74.76	899.0
74.77	823.0
74.78	810.0
74.79	796.0
74.8	787.0
74.81	816.0
74.82	815.0
74.83	786.0
74.84	803.0
74.85	819.0
74.86	803.0
74.87	768.0
74.88	754.0
74.89	757.0
74.9	778.0
74.91	808.0
74.92	800.0
74.93	791.0
74.94	793.0
74.95	773.0
74.96	763.0
74.97	747.0
74.98	730.0
74.99	762.0
75.0	768.0
75.01	774.0
75.02	751.0
75.03	753.0
75.04	745.0
75.05	740.0
75.06	746.0
75.07	748.0
75.08	744.0
75.09	745.0
75.1	743.0
75.11	749.0
75.12	748.0
75.13	732.0
75.14	752.0
75.15	783.0
75.16	762.0
75.17	777.0
75.18	749.0
75.19	785.0
75.2	818.0
75.21	790.0
75.22	789.0
75.23	786.0
75.24	795.0
75.25	806.0
75.26	810.0
75.27	833.0
75.28	851.0
75.29	848.0
75.3	867.0
75.31	902.0
75.32	909.0
75.33	912.0
75.34	931.0
75.35	929.0
75.36	970.0
75.37	976.0
75.38	1000.0
75.39	1008.0
75.4	1020.0
75.41	994.0
75.42	986.0
75.43	1007.0
75.44	977.0
75.45	945.0
75.46	976.0
75.47	1016.0
75.48	983.0
75.49	974.0
75.5	985.0
75.51	975.0
75.52	963.0
75.53	962.0
75.54	956.0
75.55	935.0
75.56	934.0
75.57	941.0
75.58	955.0
75.59	933.0
75.6	938.0
75.61	922.0
75.62	963.0
75.63	977.0
75.64	944.0
75.65	883.0
75.66	878.0
75.67	886.0
75.68	888.0
75.69	857.0
75.7	804.0
75.71	840.0
75.72	840.0
75.73	811.0
75.74	823.0
75.75	843.0
75.76	851.0
75.77	806.0
75.78	784.0
75.79	782.0
75.8	784.0
75.81	785.0
75.82	782.0
75.83	748.0
75.84	740.0
75.85	755.0
75.86	813.0
75.87	796.0
75.88	772.0
75.89	774.0
75.9	780.0
75.91	775.0
75.92	766.0
75.93	771.0
75.94	774.0
75.95	742.0
75.96	716.0
75.97	730.0
75.98	744.0
75.99	793.0
76.0	776.0
76.01	793.0
76.02	771.0
76.03	752.0
76.04	775.0
76.05	722.0
76.06	670.0
76.07	698.0
76.08	736.0
76.09	729.0
76.1	728.0
76.11	736.0
76.12	762.0
76.13	774.0
76.14	739.0
76.15	730.0
76.16	721.0
76.17	724.0
76.18	741.0
76.19	761.0
76.2	744.0
76.21	718.0
76.22	753.0
76.23	744.0
76.24	723.0
76.25	745.0
76.26	732.0
76.27	753.0
76.28	738.0
76.29	719.0
76.3	740.0
76.31	769.0
76.32	765.0
76.33	748.0
76.34	727.0
76.35	709.0
76.36	700.0
76.37	719.0
76.38	697.0
76.39	713.0
76.4	729.0
76.41	713.0
76.42	733.0
76.43	739.0
76.44	751.0
76.45	745.0
76.46	723.0
76.47	721.0
76.48	755.0
76.49	707.0
76.5	700.0
76.51	705.0
76.52	694.0
76.53	701.0
76.54	743.0
76.55	730.0
76.56	715.0
76.57	700.0
76.58	704.0
76.59	713.0
76.6	674.0
76.61	700.0
76.62	691.0
76.63	696.0
76.64	720.0
76.65	736.0
76.66	753.0
76.67	794.0
76.68	774.0
76.69	713.0
76.7	690.0
76.71	690.0
76.72	717.0
76.73	700.0
76.74	715.0
76.75	710.0
76.76	704.0
76.77	715.0
76.78	700.0
76.79	695.0
76.8	689.0
76.81	710.0
76.82	712.0
76.83	687.0
76.84	701.0
76.85	698.0
76.86	725.0
76.87	734.0
76.88	714.0
76.89	709.0
76.9	718.0
76.91	686.0
76.92	698.0
76.93	680.0
76.94	708.0
76.95	703.0
76.96	684.0
76.97	712.0
76.98	728.0
76.99	714.0
77.0	713.0
77.01	727.0
77.02	710.0
77.03	700.0
77.04	705.0
77.05	731.0
77.06	703.0
77.07	680.0
77.08	666.0
77.09	676.0
77.1	697.0
77.11	693.0
77.12	675.0
77.13	657.0
77.14	672.0
77.15	689.0
77.16	677.0
77.17	696.0
77.18	679.0
77.19	686.0
77.2	708.0
77.21	700.0
77.22	693.0
77.23	697.0
77.24	687.0
77.25	681.0
77.26	698.0
77.27	681.0
77.28	685.0
77.29	689.0
77.3	691.0
77.31	702.0
77.32	686.0
77.33	707.0
77.34	673.0
77.35	641.0
77.36	683.0
77.37	705.0
77.38	670.0
77.39	689.0
77.4	710.0
77.41	673.0
77.42	691.0
77.43	703.0
77.44	694.0
77.45	673.0
77.46	682.0
77.47	662.0
77.48	707.0
77.49	700.0
77.5	655.0
77.51	668.0
77.52	668.0
77.53	665.0
77.54	671.0
77.55	661.0
77.56	688.0
77.57	687.0
77.58	684.0
77.59	667.0
77.6	661.0
77.61	656.0
77.62	677.0
77.63	702.0
77.64	700.0
77.65	691.0
77.66	664.0
77.67	672.0
77.68	672.0
77.69	672.0
77.7	691.0
77.71	699.0
77.72	694.0
77.73	700.0
77.74	679.0
77.75	705.0
77.76	670.0
77.77	650.0
77.78	689.0
77.79	698.0
77.8	676.0
77.81	671.0
77.82	687.0
77.83	708.0
77.84	696.0
77.85	689.0
77.86	665.0
77.87	637.0
77.88	681.0
77.89	737.0
77.9	718.0
77.91	671.0
77.92	708.0
77.93	726.0
77.94	674.0
77.95	664.0
77.96	704.0
77.97	689.0
77.98	668.0
77.99	650.0
78.0	686.0
78.01	696.0
78.02	685.0
78.03	673.0
78.04	671.0
78.05	676.0
78.06	680.0
78.07	650.0
78.08	655.0
78.09	707.0
78.1	712.0
78.11	685.0
78.12	690.0
78.13	682.0
78.14	708.0
78.15	677.0
78.16	649.0
78.17	660.0
78.18	649.0
78.19	656.0
78.2	664.0
78.21	655.0
78.22	664.0
78.23	681.0
78.24	676.0
78.25	675.0
78.26	680.0
78.27	662.0
78.28	655.0
78.29	662.0
78.3	681.0
78.31	668.0
78.32	672.0
78.33	697.0
78.34	700.0
78.35	685.0
78.36	691.0
78.37	657.0
78.38	709.0
78.39	678.0
78.4	665.0
78.41	666.0
78.42	682.0
78.43	656.0
78.44	682.0
78.45	680.0
78.46	670.0
78.47	683.0
78.48	683.0
78.49	670.0
78.5	686.0
78.51	687.0
78.52	703.0
78.53	685.0
78.54	685.0
78.55	669.0
78.56	690.0
78.57	678.0
78.58	664.0
78.59	663.0
78.6	683.0
78.61	705.0
78.62	684.0
78.63	697.0
78.64	691.0
78.65	681.0
78.66	663.0
78.67	672.0
78.68	687.0
78.69	693.0
78.7	696.0
78.71	691.0
78.72	685.0
78.73	678.0
78.74	666.0
78.75	677.0
78.76	702.0
78.77	679.0
78.78	663.0
78.79	703.0
78.8	696.0
78.81	713.0
78.82	697.0
78.83	706.0
78.84	737.0
78.85	735.0
78.86	704.0
78.87	692.0
78.88	717.0
78.89	714.0
78.9	692.0
78.91	688.0
78.92	718.0
78.93	744.0
78.94	720.0
78.95	706.0
78.96	710.0
78.97	698.0
78.98	702.0
78.99	722.0
79.0	708.0
79.01	722.0
79.02	699.0
79.03	700.0
79.04	751.0
79.05	745.0
79.06	751.0
79.07	710.0
79.08	719.0
79.09	752.0
79.1	744.0
79.11	731.0
79.12	722.0
79.13	760.0
79.14	757.0
79.15	742.0
79.16	738.0
79.17	750.0
79.18	757.0
79.19	787.0
79.2	808.0
79.21	790.0
79.22	821.0
79.23	819.0
79.24	824.0
79.25	880.0
79.26	858.0
79.27	854.0
79.28	949.0
79.29	966.0
79.3	992.0
79.31	1009.0
79.32	1043.0
79.33	1090.0
79.34	1099.0
79.35	1133.0
79.36	1146.0
79.37	1187.0
79.38	1152.0
79.39	1140.0
79.4	1154.0
79.41	1217.0
79.42	1176.0
79.43	1172.0
79.44	1128.0
79.45	1119.0
79.46	1118.0
79.47	1096.0
79.48	1078.0
79.49	1096.0
79.5	1084.0
79.51	1080.0
79.52	1063.0
79.53	1035.0
79.54	1044.0
79.55	1049.0
79.56	1081.0
79.57	1089.0
79.58	1046.0
79.59	1072.0
79.6	1047.0
79.61	1071.0
79.62	1027.0
79.63	1044.0
79.64	1015.0
79.65	1007.0
79.66	983.0
79.67	1015.0
79.68	955.0
79.69	924.0
79.7	939.0
79.71	975.0
79.72	943.0
79.73	927.0
79.74	898.0
79.75	857.0
79.76	825.0
79.77	845.0
79.78	878.0
79.79	864.0
79.8	812.0
79.81	800.0
79.82	800.0
79.83	798.0
79.84	775.0
79.85	814.0
79.86	812.0
79.87	812.0
79.88	799.0
79.89	806.0
79.9	799.0
79.91	779.0
79.92	786.0
79.93	795.0
79.94	787.0
79.95	766.0
79.96	754.0
79.97	763.0
79.98	765.0
79.99	745.0
80.0	720.0
80.01	708.0
80.02	708.0
80.03	757.0
80.04	748.0
80.05	729.0
80.06	707.0
80.07	753.0
80.08	749.0
80.09	727.0
80.1	742.0
80.11	747.0
80.12	721.0
80.13	739.0
80.14	743.0
80.15	759.0
80.16	710.0
80.17	684.0
80.18	710.0
80.19	741.0
80.2	694.0
80.21	683.0
80.22	698.0
80.23	729.0
80.24	713.0
80.25	706.0
80.26	719.0
80.27	691.0
80.28	698.0
80.29	697.0
80.3	695.0
80.31	734.0
80.32	716.0
80.33	675.0
80.34	715.0
80.35	725.0
80.36	730.0
80.37	731.0
80.38	740.0
80.39	696.0
80.4	697.0
80.41	693.0
80.42	688.0
80.43	706.0
80.44	693.0
80.45	696.0
80.46	724.0
80.47	717.0
80.48	711.0
80.49	716.0
80.5	676.0
80.51	672.0
80.52	677.0
80.53	680.0
80.54	690.0
80.55	695.0
80.56	711.0
80.57	721.0
80.58	682.0
80.59	671.0
80.6	693.0
80.61	694.0
80.62	695.0
80.63	682.0
80.64	669.0
80.65	681.0
80.66	669.0
80.67	685.0
80.68	710.0
80.69	734.0
80.7	714.0
80.71	697.0
80.72	733.0
80.73	739.0
80.74	693.0
80.75	680.0
80.76	700.0
80.77	725.0
80.78	693.0
80.79	702.0
80.8	711.0
80.81	691.0
80.82	703.0
80.83	719.0
80.84	680.0
80.85	674.0
80.86	702.0
80.87	710.0
80.88	690.0
80.89	685.0
80.9	688.0
80.91	702.0
80.92	667.0
80.93	659.0
80.94	696.0
80.95	662.0
80.96	670.0
80.97	701.0
80.98	706.0
80.99	703.0
81.0	699.0
81.01	709.0
81.02	705.0
81.03	677.0
81.04	686.0
81.05	703.0
81.06	729.0
81.07	710.0
81.08	698.0
81.09	706.0
81.1	701.0
81.11	690.0
81.12	690.0
81.13	678.0
81.14	689.0
81.15	709.0
81.16	705.0
81.17	698.0
81.18	692.0
81.19	688.0
81.2	665.0
81.21	674.0
81.22	703.0
81.23	711.0
81.24	715.0
81.25	711.0
81.26	678.0
81.27	652.0
81.28	657.0
81.29	700.0
81.3	717.0
81.31	684.0
81.32	674.0
81.33	704.0
81.34	696.0
81.35	681.0
81.36	686.0
81.37	678.0
81.38	696.0
81.39	700.0
81.4	676.0
81.41	692.0
81.42	696.0
81.43	675.0
81.44	676.0
81.45	689.0
81.46	674.0
81.47	667.0
81.48	681.0
81.49	704.0
81.5	704.0
81.51	673.0
81.52	690.0
81.53	678.0
81.54	667.0
81.55	672.0
81.56	698.0
81.57	701.0
81.58	710.0
81.59	677.0
81.6	695.0
81.61	703.0
81.62	696.0
81.63	702.0
81.64	686.0
81.65	679.0
81.66	687.0
81.67	700.0
81.68	685.0
81.69	660.0
81.7	683.0
81.71	673.0
81.72	697.0
81.73	704.0
81.74	674.0
81.75	709.0
81.76	727.0
81.77	715.0
81.78	673.0
81.79	679.0
81.8	671.0
81.81	681.0
81.82	684.0
81.83	712.0
81.84	712.0
81.85	706.0
81.86	675.0
81.87	675.0
81.88	679.0
81.89	690.0
81.9	717.0
81.91	721.0
81.92	701.0
81.93	681.0
81.94	702.0
81.95	727.0
81.96	752.0
81.97	721.0
81.98	722.0
81.99	719.0
82.0	698.0
82.01	720.0
82.02	699.0
82.03	694.0
82.04	716.0
82.05	745.0
82.06	722.0
82.07	734.0
82.08	750.0
82.09	737.0
82.1	737.0
82.11	743.0
82.12	729.0
82.13	735.0
82.14	748.0
82.15	735.0
82.16	770.0
82.17	737.0
82.18	721.0
82.19	791.0
82.2	790.0
82.21	805.0
82.22	822.0
82.23	843.0
82.24	860.0
82.25	851.0
82.26	861.0
82.27	899.0
82.28	935.0
82.29	946.0
82.3	942.0
82.31	932.0
82.32	983.0
82.33	988.0
82.34	979.0
82.35	990.0
82.36	963.0
82.37	942.0
82.38	974.0
82.39	991.0
82.4	984.0
82.41	966.0
82.42	962.0
82.43	957.0
82.44	900.0
82.45	895.0
82.46	895.0
82.47	917.0
82.48	891.0
82.49	874.0
82.5	875.0
82.51	903.0
82.52	897.0
82.53	891.0
82.54	871.0
82.55	885.0
82.56	886.0
82.57	898.0
82.58	886.0
82.59	900.0
82.6	886.0
82.61	894.0
82.62	859.0
82.63	813.0
82.64	820.0
82.65	832.0
82.66	825.0
82.67	817.0
82.68	811.0
82.69	833.0
82.7	826.0
82.71	812.0
82.72	800.0
82.73	805.0
82.74	783.0
82.75	788.0
82.76	789.0
82.77	772.0
82.78	778.0
82.79	779.0
82.8	743.0
82.81	697.0
82.82	711.0
82.83	734.0
82.84	752.0
82.85	733.0
82.86	726.0
82.87	768.0
82.88	769.0
82.89	740.0
82.9	728.0
82.91	739.0
82.92	759.0
82.93	749.0
82.94	730.0
82.95	706.0
82.96	703.0
82.97	750.0
82.98	753.0
82.99	737.0
83.0	703.0
83.01	692.0
83.02	704.0
83.03	691.0
83.04	710.0
83.05	761.0
83.06	706.0
83.07	706.0
83.08	722.0
83.09	711.0
83.1	720.0
83.11	698.0
83.12	685.0
83.13	688.0
83.14	721.0
83.15	709.0
83.16	695.0
83.17	693.0
83.18	684.0
83.19	684.0
83.2	678.0
83.21	716.0
83.22	717.0
83.23	696.0
83.24	695.0
83.25	688.0
83.26	686.0
83.27	672.0
83.28	665.0
83.29	683.0
83.3	655.0
83.31	676.0
83.32	668.0
83.33	668.0
83.34	694.0
83.35	698.0
83.36	705.0
83.37	720.0
83.38	715.0
83.39	726.0
83.4	690.0
83.41	686.0
83.42	699.0
83.43	687.0
83.44	692.0
83.45	741.0
83.46	703.0
83.47	692.0
83.48	678.0
83.49	684.0
83.5	688.0
83.51	689.0
83.52	679.0
83.53	665.0
83.54	665.0
83.55	673.0
83.56	691.0
83.57	686.0
83.58	671.0
83.59	665.0
83.6	657.0
83.61	645.0
83.62	651.0
83.63	682.0
83.64	668.0
83.65	666.0
83.66	690.0
83.67	713.0
83.68	725.0
83.69	667.0
83.7	643.0
83.71	650.0
83.72	666.0
83.73	650.0
83.74	650.0
83.75	678.0
83.76	675.0
83.77	691.0
83.78	703.0
83.79	703.0
83.8	714.0
83.81	687.0
83.82	687.0
83.83	684.0
83.84	666.0
83.85	675.0
83.86	683.0
83.87	727.0
83.88	709.0
83.89	697.0
83.9	678.0
83.91	708.0
83.92	706.0
83.93	712.0
83.94	696.0
83.95	706.0
83.96	697.0
83.97	682.0
83.98	695.0
83.99	695.0
84.0	704.0
84.01	707.0
84.02	692.0
84.03	706.0
84.04	690.0
84.05	676.0
84.06	681.0
84.07	668.0
84.08	669.0
84.09	680.0
84.1	670.0
84.11	675.0
84.12	707.0
84.13	697.0
84.14	697.0
84.15	704.0
84.16	708.0
84.17	696.0
84.18	712.0
84.19	711.0
84.2	692.0
84.21	675.0
84.22	684.0
84.23	675.0
84.24	652.0
84.25	674.0
84.26	688.0
84.27	693.0
84.28	669.0
84.29	700.0
84.3	706.0
84.31	710.0
84.32	704.0
84.33	685.0
84.34	694.0
84.35	676.0
84.36	683.0
84.37	697.0
84.38	698.0
84.39	682.0
84.4	683.0
84.41	678.0
84.42	664.0
84.43	669.0
84.44	688.0
84.45	683.0
84.46	664.0
84.47	663.0
84.48	676.0
84.49	674.0
84.5	697.0
84.51	678.0
84.52	671.0
84.53	693.0
84.54	696.0
84.55	699.0
84.56	692.0
84.57	679.0
84.58	690.0
84.59	691.0
84.6	699.0
84.61	675.0
84.62	685.0
84.63	682.0
84.64	688.0
84.65	670.0
84.66	687.0
84.67	672.0
84.68	660.0
84.69	657.0
84.7	673.0
84.71	679.0
84.72	679.0
84.73	661.0
84.74	670.0
84.75	668.0
84.76	669.0
84.77	665.0
84.78	677.0
84.79	668.0
84.8	670.0
84.81	699.0
84.82	719.0
84.83	703.0
84.84	662.0
84.85	652.0
84.86	684.0
84.87	695.0
84.88	656.0
84.89	648.0
84.9	678.0
84.91	683.0
84.92	655.0
84.93	667.0
84.94	665.0
84.95	646.0
84.96	682.0
84.97	698.0
84.98	681.0
84.99	690.0
85.0	684.0
85.01	683.0
85.02	702.0
85.03	695.0
85.04	664.0
85.05	670.0
85.06	672.0
85.07	674.0
85.08	666.0
85.09	659.0
85.1	678.0
85.11	673.0
85.12	665.0
85.13	674.0
85.14	651.0
85.15	639.0
85.16	674.0
85.17	675.0
85.18	671.0
85.19	666.0
85.2	654.0
85.21	649.0
85.22	665.0
85.23	665.0
85.24	666.0
85.25	653.0
85.26	692.0
85.27	696.0
85.28	682.0
85.29	678.0
85.3	674.0
85.31	659.0
85.32	658.0
85.33	652.0
85.34	666.0
85.35	668.0
85.36	655.0
85.37	668.0
85.38	651.0
85.39	666.0
85.4	665.0
85.41	661.0
85.42	664.0
85.43	664.0
85.44	673.0
85.45	683.0
85.46	697.0
85.47	674.0
85.48	648.0
85.49	638.0
85.5	657.0
85.51	671.0
85.52	685.0
85.53	684.0
85.54	651.0
85.55	651.0
85.56	651.0
85.57	651.0
85.58	653.0
85.59	668.0
85.6	677.0
85.61	684.0
85.62	645.0
85.63	641.0
85.64	656.0
85.65	659.0
85.66	651.0
85.67	676.0
85.68	689.0
85.69	696.0
85.7	685.0
85.71	669.0
85.72	681.0
85.73	673.0
85.74	679.0
85.75	658.0
85.76	649.0
85.77	673.0
85.78	658.0
85.79	665.0
85.8	678.0
85.81	667.0
85.82	673.0
85.83	654.0
85.84	655.0
85.85	649.0
85.86	650.0
85.87	676.0
85.88	690.0
85.89	697.0
85.9	685.0
85.91	684.0
85.92	701.0
85.93	696.0
85.94	693.0
85.95	657.0
85.96	648.0
85.97	648.0
85.98	659.0
85.99	667.0
86.0	681.0
86.01	653.0
86.02	669.0
86.03	687.0
86.04	682.0
86.05	655.0
86.06	651.0
86.07	669.0
86.08	668.0
86.09	674.0
86.1	669.0
86.11	659.0
86.12	669.0
86.13	665.0
86.14	664.0
86.15	669.0
86.16	663.0
86.17	647.0
86.18	655.0
86.19	661.0
86.2	686.0
86.21	698.0
86.22	682.0
86.23	661.0
86.24	646.0
86.25	672.0
86.26	673.0
86.27	679.0
86.28	679.0
86.29	683.0
86.3	689.0
86.31	686.0
86.32	686.0
86.33	659.0
86.34	648.0
86.35	655.0
86.36	655.0
86.37	677.0
86.38	690.0
86.39	679.0
86.4	677.0
86.41	693.0
86.42	679.0
86.43	680.0
86.44	666.0
86.45	667.0
86.46	683.0
86.47	670.0
86.48	653.0
86.49	675.0
86.5	675.0
86.51	681.0
86.52	676.0
86.53	687.0
86.54	691.0
86.55	689.0
86.56	678.0
86.57	666.0
86.58	668.0
86.59	664.0
86.6	670.0
86.61	677.0
86.62	679.0
86.63	683.0
86.64	690.0
86.65	693.0
86.66	704.0
86.67	704.0
86.68	687.0
86.69	670.0
86.7	656.0
86.71	642.0
86.72	639.0
86.73	661.0
86.74	684.0
86.75	674.0
86.76	662.0
86.77	676.0
86.78	704.0
86.79	708.0
86.8	687.0
86.81	676.0
86.82	658.0
86.83	662.0
86.84	687.0
86.85	696.0
86.86	678.0
86.87	689.0
86.88	697.0
86.89	669.0
86.9	668.0
86.91	695.0
86.92	708.0
86.93	696.0
86.94	684.0
86.95	675.0
86.96	672.0
86.97	685.0
86.98	698.0
86.99	687.0
87.0	653.0
87.01	655.0
87.02	688.0
87.03	671.0
87.04	690.0
87.05	712.0
87.06	729.0
87.07	697.0
87.08	691.0
87.09	721.0
87.1	700.0
87.11	675.0
87.12	716.0
87.13	710.0
87.14	723.0
87.15	736.0
87.16	739.0
87.17	727.0
87.18	724.0
87.19	729.0
87.2	693.0
87.21	700.0
87.22	718.0
87.23	736.0
87.24	745.0
87.25	743.0
87.26	735.0
87.27	728.0
87.28	738.0
87.29	743.0
87.3	734.0
87.31	724.0
87.32	705.0
87.33	703.0
87.34	698.0
87.35	709.0
87.36	689.0
87.37	682.0
87.38	689.0
87.39	705.0
87.4	701.0
87.41	695.0
87.42	703.0
87.43	714.0
87.44	722.0
87.45	719.0
87.46	711.0
87.47	726.0
87.48	733.0
87.49	711.0
87.5	675.0
87.51	697.0
87.52	706.0
87.53	716.0
87.54	715.0
87.55	716.0
87.56	700.0
87.57	689.0
87.58	683.0
87.59	682.0
87.6	669.0
87.61	674.0
87.62	690.0
87.63	700.0
87.64	712.0
87.65	683.0
87.66	685.0
87.67	680.0
87.68	669.0
87.69	680.0
87.7	711.0
87.71	707.0
87.72	650.0
87.73	636.0
87.74	664.0
87.75	674.0
87.76	665.0
87.77	670.0
87.78	673.0
87.79	668.0
87.8	663.0
87.81	680.0
87.82	687.0
87.83	662.0
87.84	675.0
87.85	689.0
87.86	671.0
87.87	650.0
87.88	669.0
87.89	688.0
87.9	702.0
87.91	687.0
87.92	659.0
87.93	661.0
87.94	638.0
87.95	653.0
87.96	691.0
87.97	692.0
87.98	673.0
87.99	670.0
88.0	686.0
88.01	696.0
88.02	703.0
88.03	714.0
88.04	689.0
88.05	688.0
88.06	680.0
88.07	666.0
88.08	664.0
88.09	664.0
88.1	647.0
88.11	657.0
88.12	669.0
88.13	673.0
88.14	688.0
88.15	664.0
88.16	655.0
88.17	653.0
88.18	656.0
88.19	677.0
88.2	665.0
88.21	655.0
88.22	658.0
88.23	655.0
88.24	673.0
88.25	686.0
88.26	674.0
88.27	660.0
88.28	670.0
88.29	684.0
88.3	678.0
88.31	662.0
88.32	657.0
88.33	657.0
88.34	649.0
88.35	663.0
88.36	688.0
88.37	693.0
88.38	706.0
88.39	691.0
88.4	661.0
88.41	644.0
88.42	654.0
88.43	678.0
88.44	698.0
88.45	685.0
88.46	669.0
88.47	654.0
88.48	645.0
88.49	661.0
88.5	671.0
88.51	658.0
88.52	662.0
88.53	670.0
88.54	673.0
88.55	671.0
88.56	674.0
88.57	673.0
88.58	668.0
88.59	669.0
88.6	676.0
88.61	676.0
88.62	675.0
88.63	675.0
88.64	680.0
88.65	706.0
88.66	727.0
88.67	713.0
88.68	693.0
88.69	679.0
88.7	701.0
88.71	681.0
88.72	673.0
88.73	681.0
88.74	668.0
88.75	665.0
88.76	665.0
88.77	669.0
88.78	658.0
88.79	648.0
88.8	647.0
88.81	656.0
88.82	674.0
88.83	685.0
88.84	692.0
88.85	687.0
88.86	677.0
88.87	684.0
88.88	693.0
88.89	681.0
88.9	663.0
88.91	660.0
88.92	674.0
88.93	684.0
88.94	684.0
88.95	696.0
88.96	693.0
88.97	668.0
88.98	659.0
88.99	666.0
89.0	680.0
89.01	690.0
89.02	679.0
89.03	656.0
89.04	668.0
89.05	676.0
89.06	694.0
89.07	713.0
89.08	704.0
89.09	684.0
89.1	667.0
89.11	670.0
89.12	684.0
89.13	692.0
89.14	681.0
89.15	683.0
89.16	685.0
89.17	694.0
89.18	691.0
89.19	694.0
89.2	694.0
89.21	694.0
89.22	714.0
89.23	716.0
89.24	691.0
89.25	695.0
89.26	716.0
89.27	722.0
89.28	712.0
89.29	680.0
89.3	672.0
89.31	694.0
89.32	744.0
89.33	761.0
89.34	737.0
89.35	741.0
89.36	726.0
89.37	692.0
89.38	694.0
89.39	697.0
89.4	702.0
89.41	711.0
89.42	717.0
89.43	725.0
89.44	721.0
89.45	705.0
89.46	718.0
89.47	742.0
89.48	731.0
89.49	714.0
89.5	720.0
89.51	733.0
89.52	722.0
89.53	727.0
89.54	719.0
89.55	705.0
89.56	715.0
89.57	713.0
89.58	728.0
89.59	746.0
89.6	736.0
89.61	779.0
89.62	770.0
89.63	716.0
89.64	701.0
89.65	704.0
89.66	731.0
89.67	762.0
89.68	759.0
89.69	756.0
89.7	743.0
89.71	741.0
89.72	755.0
89.73	749.0
89.74	737.0
89.75	736.0
89.76	756.0
89.77	759.0
89.78	752.0
89.79	753.0
89.8	746.0
89.81	741.0
89.82	733.0
89.83	755.0
89.84	777.0
89.85	769.0
89.86	769.0
89.87	756.0
89.88	767.0
89.89	801.0
89.9	812.0
89.91	802.0
89.92	774.0
89.93	780.0
89.94	815.0
89.95	853.0
89.96	874.0
89.97	872.0
89.98	893.0
89.99	916.0
90.0	931.0
90.01	962.0
90.02	995.0
90.03	1030.0
90.04	1061.0
90.05	1055.0
90.06	1062.0
90.07	1125.0
90.08	1166.0
90.09	1157.0
90.1	1144.0
90.11	1172.0
90.12	1235.0
90.13	1264.0
90.14	1233.0
90.15	1212.0
90.16	1219.0
90.17	1226.0
90.18	1210.0
90.19	1193.0
90.2	1197.0
90.21	1197.0
90.22	1180.0
90.23	1151.0
90.24	1148.0
90.25	1146.0
90.26	1110.0
90.27	1088.0
90.28	1085.0
90.29	1095.0
90.3	1111.0
90.31	1086.0
90.32	1049.0
90.33	1064.0
90.34	1104.0
90.35	1104.0
90.36	1117.0
90.37	1124.0
90.38	1104.0
90.39	1070.0
90.4	1041.0
90.41	1052.0
90.42	1044.0
90.43	1040.0
90.44	1059.0
90.45	1042.0
90.46	1026.0
90.47	1016.0
90.48	997.0
90.49	986.0
90.5	978.0
90.51	966.0
90.52	959.0
90.53	935.0
90.54	887.0
90.55	876.0
90.56	888.0
90.57	900.0
90.58	912.0
90.59	918.0
90.6	894.0
90.61	838.0
90.62	818.0
90.63	825.0
90.64	827.0
90.65	830.0
90.66	811.0
90.67	779.0
90.68	770.0
90.69	792.0
90.7	821.0
90.71	807.0
90.72	785.0
90.73	786.0
90.74	791.0
90.75	781.0
90.76	768.0
90.77	763.0
90.78	749.0
90.79	744.0
90.8	735.0
90.81	735.0
90.82	768.0
90.83	778.0
90.84	751.0
90.85	724.0
90.86	730.0
90.87	719.0
90.88	720.0
90.89	745.0
90.9	754.0
90.91	736.0
90.92	705.0
90.93	691.0
90.94	694.0
90.95	711.0
90.96	723.0
90.97	728.0
90.98	731.0
90.99	705.0
91.0	709.0
91.01	746.0
91.02	740.0
91.03	715.0
91.04	710.0
91.05	698.0
91.06	693.0
91.07	693.0
91.08	700.0
91.09	705.0
91.1	702.0
91.11	713.0
91.12	723.0
91.13	718.0
91.14	700.0
91.15	701.0
91.16	704.0
91.17	695.0
91.18	692.0
91.19	686.0
91.2	693.0
91.21	703.0
91.22	710.0
91.23	732.0
91.24	721.0
91.25	676.0
91.26	669.0
91.27	688.0
91.28	692.0
91.29	695.0
91.3	723.0
91.31	732.0
91.32	707.0
91.33	699.0
91.34	703.0
91.35	719.0
91.36	716.0
91.37	685.0
91.38	685.0
91.39	693.0
91.4	680.0
91.41	675.0
91.42	689.0
91.43	700.0
91.44	693.0
91.45	699.0
91.46	701.0
91.47	705.0
91.48	711.0
91.49	736.0
91.5	757.0
91.51	713.0
91.52	687.0
91.53	689.0
91.54	692.0
91.55	687.0
91.56	672.0
91.57	683.0
91.58	695.0
91.59	684.0
91.6	671.0
91.61	679.0
91.62	689.0
91.63	685.0
91.64	676.0
91.65	661.0
91.66	656.0
91.67	658.0
91.68	661.0
91.69	679.0
91.7	675.0
91.71	659.0
91.72	664.0
91.73	682.0
91.74	696.0
91.75	688.0
91.76	695.0
91.77	690.0
91.78	673.0
91.79	670.0
91.8	673.0
91.81	680.0
91.82	682.0
91.83	696.0
91.84	711.0
91.85	705.0
91.86	689.0
91.87	693.0
91.88	695.0
91.89	676.0
91.9	669.0
91.91	682.0
91.92	696.0
91.93	710.0
91.94	694.0
91.95	673.0
91.96	687.0
91.97	684.0
91.98	686.0
91.99	698.0
92.0	690.0
92.01	682.0
92.02	701.0
92.03	716.0
92.04	703.0
92.05	688.0
92.06	685.0
92.07	696.0
92.08	703.0
92.09	716.0
92.1	725.0
92.11	698.0
92.12	680.0
92.13	701.0
92.14	689.0
92.15	654.0
92.16	672.0
92.17	692.0
92.18	686.0
92.19	674.0
92.2	685.0
92.21	688.0
92.22	683.0
92.23	668.0
92.24	655.0
92.25	658.0
92.26	668.0
92.27	677.0
92.28	683.0
92.29	698.0
92.3	690.0
92.31	667.0
92.32	676.0
92.33	687.0
92.34	667.0
92.35	638.0
92.36	624.0
92.37	641.0
92.38	646.0
92.39	664.0
92.4	677.0
92.41	672.0
92.42	667.0
92.43	664.0
92.44	663.0
92.45	681.0
92.46	682.0
92.47	665.0
92.48	654.0
92.49	671.0
92.5	689.0
92.51	696.0
92.52	693.0
92.53	686.0
92.54	682.0
92.55	680.0
92.56	689.0
92.57	696.0
92.58	688.0
92.59	652.0
92.6	642.0
92.61	641.0
92.62	657.0
92.63	691.0
92.64	709.0
92.65	694.0
92.66	673.0
92.67	677.0
92.68	675.0
92.69	679.0
92.7	694.0
92.71	698.0
92.72	679.0
92.73	677.0
92.74	670.0
92.75	685.0
92.76	682.0
92.77	680.0
92.78	695.0
92.79	687.0
92.8	670.0
92.81	657.0
92.82	664.0
92.83	698.0
92.84	703.0
92.85	693.0
92.86	679.0
92.87	657.0
92.88	637.0
92.89	649.0
92.9	665.0
92.91	667.0
92.92	672.0
92.93	675.0
92.94	668.0
92.95	675.0
92.96	691.0
92.97	686.0
92.98	672.0
92.99	692.0
93.0	700.0
93.01	690.0
93.02	677.0
93.03	670.0
93.04	678.0
93.05	673.0
93.06	682.0
93.07	687.0
93.08	656.0
93.09	647.0
93.1	661.0
93.11	685.0
93.12	673.0
93.13	625.0
93.14	629.0
93.15	658.0
93.16	667.0
93.17	678.0
93.18	688.0
93.19	679.0
93.2	672.0
93.21	663.0
93.22	659.0
93.23	656.0
93.24	673.0
93.25	672.0
93.26	651.0
93.27	657.0
93.28	674.0
93.29	688.0
93.3	679.0
93.31	686.0
93.32	687.0
93.33	689.0
93.34	692.0
93.35	701.0
93.36	681.0
93.37	669.0
93.38	699.0
93.39	673.0
93.4	649.0
93.41	677.0
93.42	680.0
93.43	674.0
93.44	651.0
93.45	659.0
93.46	657.0
93.47	640.0
93.48	641.0
93.49	658.0
93.5	675.0
93.51	694.0
93.52	689.0
93.53	691.0
93.54	674.0
93.55	664.0
93.56	687.0
93.57	707.0
93.58	689.0
93.59	673.0
93.6	674.0
93.61	676.0
93.62	658.0
93.63	660.0
93.64	667.0
93.65	656.0
93.66	660.0
93.67	682.0
93.68	688.0
93.69	697.0
93.7	679.0
93.71	663.0
93.72	677.0
93.73	684.0
93.74	677.0
93.75	662.0
93.76	656.0
93.77	669.0
93.78	682.0
93.79	666.0
93.8	651.0
93.81	677.0
93.82	707.0
93.83	709.0
93.84	698.0
93.85	680.0
93.86	647.0
93.87	638.0
93.88	650.0
93.89	679.0
93.9	656.0
93.91	640.0
93.92	639.0
93.93	667.0
93.94	683.0
93.95	683.0
93.96	694.0
93.97	699.0
93.98	696.0
93.99	691.0
94.0	680.0
94.01	680.0
94.02	676.0
94.03	688.0
94.04	693.0
94.05	695.0
94.06	681.0
94.07	679.0
94.08	682.0
94.09	662.0
94.1	666.0
94.11	690.0
94.12	704.0
94.13	703.0
94.14	677.0
94.15	655.0
94.16	665.0
94.17	696.0
94.18	706.0
94.19	700.0
94.2	692.0
94.21	679.0
94.22	712.0
94.23	713.0
94.24	692.0
94.25	677.0
94.26	662.0
94.27	689.0
94.28	702.0
94.29	695.0
94.3	700.0
94.31	684.0
94.32	680.0
94.33	698.0
94.34	680.0
94.35	674.0
94.36	697.0
94.37	709.0
94.38	687.0
94.39	685.0
94.4	685.0
94.41	689.0
94.42	692.0
94.43	697.0
94.44	716.0
94.45	690.0
94.46	675.0
94.47	675.0
94.48	695.0
94.49	696.0
94.5	665.0
94.51	683.0
94.52	703.0
94.53	693.0
94.54	687.0
94.55	683.0
94.56	682.0
94.57	688.0
94.58	714.0
94.59	734.0
94.6	727.0
94.61	725.0
94.62	726.0
94.63	741.0
94.64	752.0
94.65	729.0
94.66	730.0
94.67	717.0
94.68	713.0
94.69	706.0
94.7	694.0
94.71	704.0
94.72	719.0
94.73	714.0
94.74	708.0
94.75	715.0
94.76	737.0
94.77	777.0
94.78	753.0
94.79	745.0
94.8	746.0
94.81	751.0
94.82	772.0
94.83	789.0
94.84	801.0
94.85	802.0
94.86	795.0
94.87	810.0
94.88	811.0
94.89	833.0
94.9	821.0
94.91	824.0
94.92	844.0
94.93	862.0
94.94	868.0
94.95	863.0
94.96	851.0
94.97	865.0
94.98	934.0
94.99	963.0
95.0	925.0
95.01	905.0
95.02	907.0
95.03	923.0
95.04	938.0
95.05	918.0
95.06	909.0
95.07	907.0
95.08	894.0
95.09	867.0
95.1	883.0
95.11	896.0
95.12	885.0
95.13	870.0
95.14	865.0
95.15	866.0
95.16	867.0
95.17	874.0
95.18	870.0
95.19	842.0
95.2	840.0
95.21	820.0
95.22	838.0
95.23	848.0
95.24	843.0
95.25	856.0
95.26	864.0
95.27	854.0
95.28	833.0
95.29	819.0
95.3	824.0
95.31	830.0
95.32	829.0
95.33	825.0
95.34	816.0
95.35	803.0
95.36	831.0
95.37	843.0
95.38	823.0
95.39	819.0
95.4	809.0
95.41	783.0
95.42	775.0
95.43	767.0
95.44	770.0
95.45	748.0
95.46	760.0
95.47	761.0
95.48	750.0
95.49	739.0
95.5	733.0
95.51	764.0
95.52	754.0
95.53	760.0
95.54	772.0
95.55	762.0
95.56	745.0
95.57	745.0
95.58	744.0
95.59	726.0
95.6	727.0
95.61	707.0
95.62	703.0
95.63	701.0
95.64	728.0
95.65	745.0
95.66	750.0
95.67	740.0
95.68	708.0
95.69	697.0
95.7	670.0
95.71	683.0
95.72	695.0
95.73	718.0
95.74	701.0
95.75	722.0
95.76	705.0
95.77	690.0
95.78	703.0
95.79	682.0
95.8	685.0
95.81	679.0
95.82	696.0
95.83	681.0
95.84	692.0
95.85	688.0
95.86	668.0
95.87	659.0
95.88	686.0
95.89	721.0
95.9	733.0
95.91	699.0
95.92	693.0
95.93	718.0
95.94	709.0
95.95	693.0
95.96	701.0
95.97	713.0
95.98	674.0
95.99	672.0
96.0	669.0
96.01	669.0
96.02	655.0
96.03	692.0
96.04	709.0
96.05	686.0
96.06	679.0
96.07	683.0
96.08	682.0
96.09	664.0
96.1	696.0
96.11	723.0
96.12	704.0
96.13	701.0
96.14	693.0
96.15	689.0
96.16	712.0
96.17	688.0
96.18	670.0
96.19	662.0
96.2	653.0
96.21	662.0
96.22	655.0
96.23	669.0
96.24	675.0
96.25	675.0
96.26	681.0
96.27	687.0
96.28	689.0
96.29	683.0
96.3	680.0
96.31	681.0
96.32	694.0
96.33	693.0
96.34	712.0
96.35	702.0
96.36	658.0
96.37	671.0
96.38	663.0
96.39	652.0
96.4	703.0
96.41	669.0
96.42	672.0
96.43	683.0
96.44	698.0
96.45	745.0
96.46	694.0
96.47	646.0
96.48	671.0
96.49	691.0
96.5	705.0
96.51	708.0
96.52	667.0
96.53	651.0
96.54	669.0
96.55	686.0
96.56	669.0
96.57	716.0
96.58	704.0
96.59	696.0
96.6	662.0
96.61	693.0
96.62	681.0
96.63	644.0
96.64	677.0
96.65	683.0
96.66	658.0
96.67	646.0
96.68	653.0
96.69	680.0
96.7	677.0
96.71	659.0
96.72	680.0
96.73	673.0
96.74	648.0
96.75	668.0
96.76	666.0
96.77	681.0
96.78	697.0
96.79	675.0
96.8	661.0
96.81	650.0
96.82	631.0
96.83	634.0
96.84	661.0
96.85	671.0
96.86	688.0
96.87	644.0
96.88	660.0
96.89	690.0
96.9	701.0
96.91	693.0
96.92	671.0
96.93	668.0
96.94	663.0
96.95	671.0
96.96	679.0
96.97	685.0
96.98	669.0
96.99	651.0
97.0	650.0
97.01	653.0
97.02	699.0
97.03	685.0
97.04	697.0
97.05	686.0
97.06	667.0
97.07	676.0
97.08	669.0
97.09	653.0
97.1	666.0
97.11	648.0
97.12	643.0
97.13	663.0
97.14	689.0
97.15	699.0
97.16	667.0
97.17	674.0
97.18	665.0
97.19	628.0
97.2	658.0
97.21	702.0
97.22	684.0
97.23	664.0
97.24	645.0
97.25	679.0
97.26	662.0
97.27	660.0
97.28	650.0
97.29	655.0
97.3	662.0
97.31	673.0
97.32	677.0
97.33	663.0
97.34	658.0
97.35	668.0
97.36	666.0
97.37	681.0
97.38	673.0
97.39	649.0
97.4	667.0
97.41	693.0
97.42	673.0
97.43	655.0
97.44	680.0
97.45	655.0
97.46	644.0
97.47	678.0
97.48	668.0
97.49	649.0
97.5	638.0
97.51	646.0
97.52	647.0
97.53	652.0
97.54	679.0
97.55	661.0
97.56	669.0
97.57	662.0
97.58	647.0
97.59	645.0
97.6	661.0
97.61	666.0
97.62	661.0
97.63	663.0
97.64	652.0
97.65	654.0
97.66	636.0
97.67	634.0
97.68	626.0
97.69	660.0
97.7	684.0
97.71	672.0
97.72	649.0
97.73	646.0
97.74	627.0
97.75	631.0
97.76	648.0
97.77	648.0
97.78	637.0
97.79	641.0
97.8	676.0
97.81	688.0
97.82	646.0
97.83	638.0
97.84	666.0
97.85	676.0
97.86	656.0
97.87	653.0
97.88	683.0
97.89	675.0
97.9	678.0
97.91	668.0
97.92	639.0
97.93	670.0
97.94	657.0
97.95	637.0
97.96	665.0
97.97	697.0
97.98	703.0
97.99	658.0
98.0	650.0
98.01	666.0
98.02	650.0
98.03	686.0
98.04	678.0
98.05	707.0
98.06	703.0
98.07	694.0
98.08	641.0
98.09	670.0
98.1	660.0
98.11	661.0
98.12	670.0
98.13	658.0
98.14	626.0
98.15	665.0
98.16	675.0
98.17	676.0
98.18	666.0
98.19	681.0
98.2	661.0
98.21	657.0
98.22	690.0
98.23	652.0
98.24	648.0
98.25	648.0
98.26	682.0
98.27	698.0
98.28	702.0
98.29	649.0
98.3	692.0
98.31	689.0
98.32	624.0
98.33	597.0
98.34	654.0
98.35	663.0
98.36	659.0
98.37	627.0
98.38	620.0
98.39	613.0
98.4	649.0
98.41	670.0
98.42	655.0
98.43	621.0
98.44	663.0
98.45	701.0
98.46	668.0
98.47	654.0
98.48	645.0
98.49	646.0
98.5	675.0
98.51	693.0
98.52	680.0
98.53	641.0
98.54	643.0
98.55	638.0
98.56	646.0
98.57	662.0
98.58	635.0
98.59	663.0
98.6	677.0
98.61	674.0
98.62	692.0
98.63	695.0
98.64	675.0
98.65	675.0
98.66	679.0
98.67	663.0
98.68	682.0
98.69	679.0
98.7	661.0
98.71	646.0
98.72	644.0
98.73	666.0
98.74	698.0
98.75	661.0
98.76	661.0
98.77	644.0
98.78	670.0
98.79	645.0
98.8	655.0
98.81	670.0
98.82	646.0
98.83	634.0
98.84	642.0
98.85	626.0
98.86	618.0
98.87	632.0
98.88	644.0
98.89	628.0
98.9	657.0
98.91	650.0
98.92	678.0
98.93	670.0
98.94	641.0
98.95	630.0
98.96	645.0
98.97	650.0
98.98	661.0
98.99	662.0
99.0	651.0
99.01	685.0
99.02	715.0
99.03	687.0
99.04	660.0
99.05	646.0
99.06	659.0
99.07	674.0
99.08	671.0
99.09	668.0
99.1	669.0
99.11	666.0
99.12	665.0
99.13	648.0
99.14	626.0
99.15	638.0
99.16	683.0
99.17	686.0
99.18	676.0
99.19	645.0
99.2	647.0
99.21	674.0
99.22	658.0
99.23	657.0
99.24	667.0
99.25	656.0
99.26	652.0
99.27	646.0
99.28	647.0
99.29	647.0
99.3	657.0
99.31	645.0
99.32	663.0
99.33	688.0
99.34	668.0
99.35	666.0
99.36	679.0
99.37	674.0
99.38	673.0
99.39	660.0
99.4	636.0
99.41	629.0
99.42	648.0
99.43	651.0
99.44	671.0
99.45	650.0
99.46	658.0
99.47	662.0
99.48	676.0
99.49	683.0
99.5	661.0
99.51	658.0
99.52	643.0
99.53	656.0
99.54	658.0
99.55	647.0
99.56	662.0
99.57	685.0
99.58	668.0
99.59	664.0
99.6	695.0
99.61	672.0
99.62	638.0
99.63	657.0
99.64	664.0
99.65	679.0
99.66	696.0
99.67	724.0
99.68	670.0
99.69	619.0
99.7	649.0
99.71	670.0
99.72	679.0
99.73	659.0
99.74	668.0
99.75	647.0
99.76	649.0
99.77	679.0
99.78	691.0
99.79	704.0
99.8	713.0
99.81	705.0
99.82	682.0
99.83	671.0
99.84	680.0
99.85	670.0
99.86	650.0
99.87	641.0
99.88	651.0
99.89	648.0
99.9	657.0
99.91	639.0
99.92	648.0
99.93	681.0
99.94	673.0
99.95	653.0
99.96	675.0
99.97	666.0
99.98	626.0
99.99	644.0
100.0	672.0
