Offstoi_LiMnTiO4_100
Wavelength = 1.54059 Ã… (Cu)
10.0	1637.0
10.01	1673.0
10.02	1733.0
10.03	1731.0
10.04	1728.0
10.05	1726.0
10.06	1763.0
10.07	1746.0
10.08	1760.0
10.09	1786.0
10.1	1726.0
10.11	1718.0
10.12	1722.0
10.13	1791.0
10.14	1762.0
10.15	1738.0
10.16	1764.0
10.17	1766.0
10.18	1753.0
10.19	1741.0
10.2	1754.0
10.21	1771.0
10.22	1749.0
10.23	1737.0
10.24	1753.0
10.25	1781.0
10.26	1778.0
10.27	1785.0
10.28	1753.0
10.29	1720.0
10.3	1721.0
10.31	1752.0
10.32	1769.0
10.33	1779.0
10.34	1703.0
10.35	1707.0
10.36	1754.0
10.37	1749.0
10.38	1719.0
10.39	1712.0
10.4	1725.0
10.41	1810.0
10.42	1801.0
10.43	1781.0
10.44	1776.0
10.45	1740.0
10.46	1763.0
10.47	1760.0
10.48	1757.0
10.49	1807.0
10.5	1821.0
10.51	1781.0
10.52	1789.0
10.53	1787.0
10.54	1800.0
10.55	1756.0
10.56	1770.0
10.57	1754.0
10.58	1788.0
10.59	1771.0
10.6	1743.0
10.61	1807.0
10.62	1851.0
10.63	1804.0
10.64	1780.0
10.65	1764.0
10.66	1723.0
10.67	1738.0
10.68	1767.0
10.69	1811.0
10.7	1817.0
10.71	1818.0
10.72	1840.0
10.73	1832.0
10.74	1787.0
10.75	1787.0
10.76	1842.0
10.77	1830.0
10.78	1817.0
10.79	1791.0
10.8	1777.0
10.81	1779.0
10.82	1894.0
10.83	1910.0
10.84	1893.0
10.85	1833.0
10.86	1779.0
10.87	1782.0
10.88	1797.0
10.89	1803.0
10.9	1811.0
10.91	1775.0
10.92	1865.0
10.93	1801.0
10.94	1815.0
10.95	1854.0
10.96	1848.0
10.97	1817.0
10.98	1810.0
10.99	1786.0
11.0	1788.0
11.01	1852.0
11.02	1859.0
11.03	1814.0
11.04	1810.0
11.05	1823.0
11.06	1825.0
11.07	1781.0
11.08	1800.0
11.09	1839.0
11.1	1861.0
11.11	1867.0
11.12	1853.0
11.13	1759.0
11.14	1817.0
11.15	1810.0
11.16	1811.0
11.17	1836.0
11.18	1828.0
11.19	1855.0
11.2	1863.0
11.21	1861.0
11.22	1844.0
11.23	1853.0
11.24	1824.0
11.25	1787.0
11.26	1798.0
11.27	1842.0
11.28	1865.0
11.29	1803.0
11.3	1808.0
11.31	1867.0
11.32	1832.0
11.33	1836.0
11.34	1850.0
11.35	1825.0
11.36	1832.0
11.37	1860.0
11.38	1842.0
11.39	1906.0
11.4	1871.0
11.41	1859.0
11.42	1829.0
11.43	1772.0
11.44	1818.0
11.45	1840.0
11.46	1856.0
11.47	1875.0
11.48	1870.0
11.49	1848.0
11.5	1864.0
11.51	1909.0
11.52	1871.0
11.53	1821.0
11.54	1814.0
11.55	1914.0
11.56	1909.0
11.57	1876.0
11.58	1929.0
11.59	1897.0
11.6	1908.0
11.61	1894.0
11.62	1889.0
11.63	1869.0
11.64	1876.0
11.65	1850.0
11.66	1896.0
11.67	1876.0
11.68	1856.0
11.69	1854.0
11.7	1864.0
11.71	1881.0
11.72	1942.0
11.73	1920.0
11.74	1950.0
11.75	1896.0
11.76	1920.0
11.77	1886.0
11.78	1936.0
11.79	1924.0
11.8	1886.0
11.81	1854.0
11.82	1878.0
11.83	1854.0
11.84	1801.0
11.85	1855.0
11.86	1892.0
11.87	1869.0
11.88	1877.0
11.89	1887.0
11.9	1889.0
11.91	1877.0
11.92	1854.0
11.93	1902.0
11.94	1981.0
11.95	1939.0
11.96	1909.0
11.97	1911.0
11.98	1994.0
11.99	1968.0
12.0	1938.0
12.01	1919.0
12.02	1897.0
12.03	1889.0
12.04	1877.0
12.05	1877.0
12.06	1906.0
12.07	1944.0
12.08	1917.0
12.09	1927.0
12.1	1876.0
12.11	1954.0
12.12	1986.0
12.13	1930.0
12.14	1942.0
12.15	1923.0
12.16	1947.0
12.17	1901.0
12.18	1917.0
12.19	1950.0
12.2	1944.0
12.21	1898.0
12.22	1884.0
12.23	1911.0
12.24	1852.0
12.25	1843.0
12.26	1906.0
12.27	1885.0
12.28	1855.0
12.29	1924.0
12.3	1971.0
12.31	1946.0
12.32	1934.0
12.33	1967.0
12.34	1959.0
12.35	1894.0
12.36	1918.0
12.37	1918.0
12.38	1945.0
12.39	1928.0
12.4	1909.0
12.41	1944.0
12.42	1923.0
12.43	1917.0
12.44	1970.0
12.45	1932.0
12.46	1860.0
12.47	1889.0
12.48	1980.0
12.49	1964.0
12.5	2007.0
12.51	2011.0
12.52	1945.0
12.53	1907.0
12.54	1882.0
12.55	1908.0
12.56	1945.0
12.57	1963.0
12.58	1970.0
12.59	1995.0
12.6	1999.0
12.61	1973.0
12.62	1928.0
12.63	1945.0
12.64	1961.0
12.65	2009.0
12.66	1995.0
12.67	1913.0
12.68	1950.0
12.69	1994.0
12.7	1944.0
12.71	1994.0
12.72	1995.0
12.73	1940.0
12.74	1937.0
12.75	1941.0
12.76	1950.0
12.77	1945.0
12.78	1906.0
12.79	1977.0
12.8	1973.0
12.81	1966.0
12.82	1964.0
12.83	1952.0
12.84	1940.0
12.85	1952.0
12.86	1928.0
12.87	1954.0
12.88	1972.0
12.89	1983.0
12.9	1976.0
12.91	1955.0
12.92	2006.0
12.93	2017.0
12.94	2015.0
12.95	2028.0
12.96	2019.0
12.97	2011.0
12.98	1968.0
12.99	1935.0
13.0	1953.0
13.01	1953.0
13.02	1990.0
13.03	2003.0
13.04	1947.0
13.05	1944.0
13.06	1968.0
13.07	1975.0
13.08	1985.0
13.09	1959.0
13.1	2040.0
13.11	2020.0
13.12	2016.0
13.13	2000.0
13.14	1966.0
13.15	1942.0
13.16	1936.0
13.17	1939.0
13.18	1998.0
13.19	2016.0
13.2	1976.0
13.21	1996.0
13.22	2039.0
13.23	1976.0
13.24	1971.0
13.25	1982.0
13.26	1976.0
13.27	1982.0
13.28	2009.0
13.29	2065.0
13.3	2002.0
13.31	2005.0
13.32	2053.0
13.33	2055.0
13.34	2008.0
13.35	2059.0
13.36	2073.0
13.37	2049.0
13.38	2051.0
13.39	2045.0
13.4	2018.0
13.41	2026.0
13.42	2052.0
13.43	2010.0
13.44	1986.0
13.45	2033.0
13.46	2042.0
13.47	2031.0
13.48	2050.0
13.49	2068.0
13.5	1997.0
13.51	2046.0
13.52	2017.0
13.53	2005.0
13.54	1992.0
13.55	2053.0
13.56	2033.0
13.57	2016.0
13.58	2006.0
13.59	2019.0
13.6	2050.0
13.61	2065.0
13.62	2018.0
13.63	1996.0
13.64	2041.0
13.65	2056.0
13.66	2026.0
13.67	2037.0
13.68	2020.0
13.69	2002.0
13.7	1958.0
13.71	1992.0
13.72	1997.0
13.73	2001.0
13.74	2028.0
13.75	2037.0
13.76	2064.0
13.77	2067.0
13.78	2022.0
13.79	1997.0
13.8	2049.0
13.81	2071.0
13.82	2041.0
13.83	2025.0
13.84	2054.0
13.85	2077.0
13.86	2059.0
13.87	2077.0
13.88	2064.0
13.89	2047.0
13.9	2033.0
13.91	2036.0
13.92	2059.0
13.93	2081.0
13.94	2059.0
13.95	2009.0
13.96	2011.0
13.97	2086.0
13.98	2070.0
13.99	2058.0
14.0	2036.0
14.01	2025.0
14.02	2033.0
14.03	2062.0
14.04	2026.0
14.05	2010.0
14.06	2033.0
14.07	2107.0
14.08	2119.0
14.09	2005.0
14.1	2007.0
14.11	2018.0
14.12	2067.0
14.13	2066.0
14.14	2072.0
14.15	2057.0
14.16	2043.0
14.17	2075.0
14.18	2075.0
14.19	2033.0
14.2	2038.0
14.21	2059.0
14.22	2058.0
14.23	2035.0
14.24	1996.0
14.25	2062.0
14.26	2075.0
14.27	2047.0
14.28	2031.0
14.29	2011.0
14.3	2011.0
14.31	2049.0
14.32	2057.0
14.33	2027.0
14.34	2029.0
14.35	2039.0
14.36	2080.0
14.37	2097.0
14.38	2101.0
14.39	2098.0
14.4	2122.0
14.41	2134.0
14.42	2117.0
14.43	2068.0
14.44	2018.0
14.45	2026.0
14.46	2021.0
14.47	2024.0
14.48	2031.0
14.49	2042.0
14.5	2050.0
14.51	2066.0
14.52	2061.0
14.53	2013.0
14.54	2024.0
14.55	2059.0
14.56	2072.0
14.57	2075.0
14.58	2098.0
14.59	2076.0
14.6	2091.0
14.61	2071.0
14.62	2068.0
14.63	2039.0
14.64	2029.0
14.65	2031.0
14.66	2054.0
14.67	2068.0
14.68	2055.0
14.69	2033.0
14.7	2018.0
14.71	2093.0
14.72	2116.0
14.73	2086.0
14.74	2057.0
14.75	2048.0
14.76	2023.0
14.77	2061.0
14.78	2088.0
14.79	2050.0
14.8	2047.0
14.81	2089.0
14.82	2084.0
14.83	2060.0
14.84	2044.0
14.85	2058.0
14.86	2072.0
14.87	2077.0
14.88	2064.0
14.89	2061.0
14.9	2103.0
14.91	2114.0
14.92	2103.0
14.93	2041.0
14.94	2049.0
14.95	2044.0
14.96	2036.0
14.97	2054.0
14.98	2085.0
14.99	2082.0
15.0	2031.0
15.01	2013.0
15.02	2019.0
15.03	1996.0
15.04	2070.0
15.05	2095.0
15.06	2080.0
15.07	2052.0
15.08	2041.0
15.09	2034.0
15.1	2063.0
15.11	2109.0
15.12	2112.0
15.13	2035.0
15.14	2042.0
15.15	2063.0
15.16	2088.0
15.17	2116.0
15.18	2063.0
15.19	2040.0
15.2	2017.0
15.21	2008.0
15.22	2049.0
15.23	2046.0
15.24	2046.0
15.25	2029.0
15.26	1996.0
15.27	1975.0
15.28	2003.0
15.29	2055.0
15.3	2084.0
15.31	2056.0
15.32	1994.0
15.33	1981.0
15.34	1997.0
15.35	1993.0
15.36	2011.0
15.37	1996.0
15.38	1982.0
15.39	2025.0
15.4	1995.0
15.41	1957.0
15.42	1949.0
15.43	1982.0
15.44	2012.0
15.45	2009.0
15.46	2016.0
15.47	2045.0
15.48	2081.0
15.49	2065.0
15.5	2061.0
15.51	2071.0
15.52	2039.0
15.53	2030.0
15.54	2049.0
15.55	2022.0
15.56	2010.0
15.57	2055.0
15.58	2055.0
15.59	2015.0
15.6	2005.0
15.61	2021.0
15.62	1993.0
15.63	1993.0
15.64	2031.0
15.65	2030.0
15.66	2005.0
15.67	2014.0
15.68	1992.0
15.69	1997.0
15.7	2069.0
15.71	2098.0
15.72	2064.0
15.73	2049.0
15.74	2071.0
15.75	2069.0
15.76	2024.0
15.77	2012.0
15.78	2016.0
15.79	2016.0
15.8	2016.0
15.81	2012.0
15.82	2019.0
15.83	1991.0
15.84	2008.0
15.85	2010.0
15.86	2007.0
15.87	1991.0
15.88	1997.0
15.89	1993.0
15.9	1999.0
15.91	2016.0
15.92	1995.0
15.93	1959.0
15.94	1995.0
15.95	2070.0
15.96	2039.0
15.97	2012.0
15.98	2008.0
15.99	2006.0
16.0	1996.0
16.01	1983.0
16.02	1994.0
16.03	2030.0
16.04	2047.0
16.05	2040.0
16.06	2007.0
16.07	2009.0
16.08	2025.0
16.09	2000.0
16.1	2036.0
16.11	2050.0
16.12	1982.0
16.13	1968.0
16.14	2034.0
16.15	2033.0
16.16	1984.0
16.17	1988.0
16.18	2013.0
16.19	2021.0
16.2	2002.0
16.21	1984.0
16.22	1991.0
16.23	1987.0
16.24	2005.0
16.25	2025.0
16.26	2002.0
16.27	1954.0
16.28	1966.0
16.29	2007.0
16.3	2044.0
16.31	2049.0
16.32	2044.0
16.33	1997.0
16.34	1962.0
16.35	1995.0
16.36	2002.0
16.37	1985.0
16.38	1963.0
16.39	2003.0
16.4	2016.0
16.41	1981.0
16.42	1990.0
16.43	2027.0
16.44	1994.0
16.45	1972.0
16.46	1983.0
16.47	1998.0
16.48	2003.0
16.49	1975.0
16.5	1967.0
16.51	1966.0
16.52	1953.0
16.53	1998.0
16.54	2017.0
16.55	1994.0
16.56	2002.0
16.57	2001.0
16.58	1967.0
16.59	1999.0
16.6	2039.0
16.61	2009.0
16.62	2000.0
16.63	1988.0
16.64	1999.0
16.65	1997.0
16.66	1979.0
16.67	1985.0
16.68	2026.0
16.69	2023.0
16.7	1963.0
16.71	1946.0
16.72	1961.0
16.73	1974.0
16.74	1994.0
16.75	2014.0
16.76	2019.0
16.77	2024.0
16.78	2023.0
16.79	2005.0
16.8	2003.0
16.81	2000.0
16.82	1983.0
16.83	1990.0
16.84	2021.0
16.85	2061.0
16.86	2062.0
16.87	2009.0
16.88	2012.0
16.89	2060.0
16.9	2061.0
16.91	2016.0
16.92	2000.0
16.93	2022.0
16.94	1982.0
16.95	1976.0
16.96	2023.0
16.97	2036.0
16.98	2028.0
16.99	2002.0
17.0	1980.0
17.01	1977.0
17.02	1997.0
17.03	1994.0
17.04	1964.0
17.05	1955.0
17.06	1988.0
17.07	2002.0
17.08	1992.0
17.09	1977.0
17.1	1975.0
17.11	1994.0
17.12	2007.0
17.13	1984.0
17.14	1959.0
17.15	1947.0
17.16	1982.0
17.17	2010.0
17.18	2024.0
17.19	2039.0
17.2	2029.0
17.21	1992.0
17.22	1959.0
17.23	1975.0
17.24	1992.0
17.25	1989.0
17.26	1981.0
17.27	1977.0
17.28	2015.0
17.29	2052.0
17.3	2043.0
17.31	2003.0
17.32	1968.0
17.33	1962.0
17.34	1966.0
17.35	1984.0
17.36	1994.0
17.37	2000.0
17.38	2008.0
17.39	2017.0
17.4	2029.0
17.41	2003.0
17.42	1985.0
17.43	2017.0
17.44	2016.0
17.45	1968.0
17.46	1980.0
17.47	1997.0
17.48	1982.0
17.49	2000.0
17.5	2009.0
17.51	1975.0
17.52	1975.0
17.53	2019.0
17.54	2000.0
17.55	1975.0
17.56	1986.0
17.57	1984.0
17.58	1981.0
17.59	1984.0
17.6	1999.0
17.61	2020.0
17.62	2003.0
17.63	2005.0
17.64	2053.0
17.65	2056.0
17.66	2047.0
17.67	2050.0
17.68	2035.0
17.69	2019.0
17.7	2010.0
17.71	2003.0
17.72	1992.0
17.73	2010.0
17.74	2023.0
17.75	2007.0
17.76	2004.0
17.77	2028.0
17.78	2027.0
17.79	2013.0
17.8	2018.0
17.81	2022.0
17.82	2033.0
17.83	2016.0
17.84	1981.0
17.85	1997.0
17.86	2043.0
17.87	2048.0
17.88	2045.0
17.89	2063.0
17.9	2060.0
17.91	2037.0
17.92	2031.0
17.93	2024.0
17.94	2025.0
17.95	2064.0
17.96	2090.0
17.97	2087.0
17.98	2119.0
17.99	2144.0
18.0	2112.0
18.01	2102.0
18.02	2147.0
18.03	2201.0
18.04	2211.0
18.05	2218.0
18.06	2209.0
18.07	2228.0
18.08	2284.0
18.09	2335.0
18.1	2344.0
18.11	2344.0
18.12	2393.0
18.13	2484.0
18.14	2550.0
18.15	2648.0
18.16	2770.0
18.17	2845.0
18.18	2924.0
18.19	3047.0
18.2	3258.0
18.21	3412.0
18.22	3600.0
18.23	3857.0
18.24	4095.0
18.25	4374.0
18.26	4693.0
18.27	5024.0
18.28	5347.0
18.29	5608.0
18.3	5732.0
18.31	5725.0
18.32	5665.0
18.33	5603.0
18.34	5433.0
18.35	5187.0
18.36	4929.0
18.37	4589.0
18.38	4264.0
18.39	3991.0
18.4	3739.0
18.41	3490.0
18.42	3290.0
18.43	3127.0
18.44	3031.0
18.45	2971.0
18.46	2896.0
18.47	2831.0
18.48	2780.0
18.49	2748.0
18.5	2738.0
18.51	2667.0
18.52	2590.0
18.53	2531.0
18.54	2388.0
18.55	2356.0
18.56	2346.0
18.57	2239.0
18.58	2180.0
18.59	2157.0
18.6	2128.0
18.61	2096.0
18.62	2116.0
18.63	2132.0
18.64	2104.0
18.65	2072.0
18.66	2063.0
18.67	2055.0
18.68	2040.0
18.69	2003.0
18.7	2016.0
18.71	2061.0
18.72	2064.0
18.73	2030.0
18.74	2019.0
18.75	1987.0
18.76	1960.0
18.77	1988.0
18.78	2031.0
18.79	1991.0
18.8	1948.0
18.81	1929.0
18.82	1949.0
18.83	1979.0
18.84	1927.0
18.85	1910.0
18.86	1929.0
18.87	1915.0
18.88	1909.0
18.89	1941.0
18.9	1963.0
18.91	1961.0
18.92	1933.0
18.93	1910.0
18.94	1893.0
18.95	1914.0
18.96	1931.0
18.97	1937.0
18.98	1916.0
18.99	1900.0
19.0	1944.0
19.01	1961.0
19.02	1954.0
19.03	1953.0
19.04	1939.0
19.05	1936.0
19.06	1909.0
19.07	1907.0
19.08	1915.0
19.09	1966.0
19.1	1981.0
19.11	1964.0
19.12	1924.0
19.13	1887.0
19.14	1868.0
19.15	1909.0
19.16	1922.0
19.17	1920.0
19.18	1903.0
19.19	1897.0
19.2	1921.0
19.21	1926.0
19.22	1909.0
19.23	1864.0
19.24	1863.0
19.25	1914.0
19.26	1941.0
19.27	1919.0
19.28	1903.0
19.29	1891.0
19.3	1894.0
19.31	1874.0
19.32	1863.0
19.33	1898.0
19.34	1913.0
19.35	1882.0
19.36	1880.0
19.37	1894.0
19.38	1872.0
19.39	1864.0
19.4	1846.0
19.41	1850.0
19.42	1874.0
19.43	1891.0
19.44	1871.0
19.45	1886.0
19.46	1941.0
19.47	1905.0
19.48	1900.0
19.49	1889.0
19.5	1882.0
19.51	1897.0
19.52	1869.0
19.53	1863.0
19.54	1872.0
19.55	1849.0
19.56	1834.0
19.57	1862.0
19.58	1858.0
19.59	1820.0
19.6	1806.0
19.61	1823.0
19.62	1834.0
19.63	1852.0
19.64	1896.0
19.65	1918.0
19.66	1858.0
19.67	1838.0
19.68	1888.0
19.69	1916.0
19.7	1865.0
19.71	1834.0
19.72	1841.0
19.73	1844.0
19.74	1836.0
19.75	1826.0
19.76	1813.0
19.77	1829.0
19.78	1823.0
19.79	1845.0
19.8	1890.0
19.81	1862.0
19.82	1856.0
19.83	1850.0
19.84	1841.0
19.85	1776.0
19.86	1827.0
19.87	1854.0
19.88	1821.0
19.89	1840.0
19.9	1829.0
19.91	1830.0
19.92	1852.0
19.93	1849.0
19.94	1810.0
19.95	1787.0
19.96	1839.0
19.97	1867.0
19.98	1826.0
19.99	1831.0
20.0	1855.0
20.01	1837.0
20.02	1858.0
20.03	1839.0
20.04	1790.0
20.05	1767.0
20.06	1831.0
20.07	1857.0
20.08	1874.0
20.09	1820.0
20.1	1830.0
20.11	1830.0
20.12	1799.0
20.13	1777.0
20.14	1790.0
20.15	1739.0
20.16	1733.0
20.17	1786.0
20.18	1834.0
20.19	1847.0
20.2	1794.0
20.21	1808.0
20.22	1824.0
20.23	1790.0
20.24	1781.0
20.25	1761.0
20.26	1769.0
20.27	1800.0
20.28	1789.0
20.29	1753.0
20.3	1765.0
20.31	1739.0
20.32	1788.0
20.33	1793.0
20.34	1790.0
20.35	1802.0
20.36	1850.0
20.37	1831.0
20.38	1779.0
20.39	1794.0
20.4	1843.0
20.41	1801.0
20.42	1747.0
20.43	1771.0
20.44	1784.0
20.45	1781.0
20.46	1797.0
20.47	1770.0
20.48	1756.0
20.49	1787.0
20.5	1785.0
20.51	1777.0
20.52	1750.0
20.53	1762.0
20.54	1759.0
20.55	1810.0
20.56	1782.0
20.57	1772.0
20.58	1754.0
20.59	1748.0
20.6	1747.0
20.61	1759.0
20.62	1779.0
20.63	1760.0
20.64	1762.0
20.65	1777.0
20.66	1772.0
20.67	1754.0
20.68	1716.0
20.69	1754.0
20.7	1778.0
20.71	1762.0
20.72	1745.0
20.73	1703.0
20.74	1702.0
20.75	1731.0
20.76	1793.0
20.77	1771.0
20.78	1758.0
20.79	1796.0
20.8	1771.0
20.81	1751.0
20.82	1757.0
20.83	1785.0
20.84	1760.0
20.85	1726.0
20.86	1724.0
20.87	1703.0
20.88	1730.0
20.89	1739.0
20.9	1716.0
20.91	1682.0
20.92	1714.0
20.93	1764.0
20.94	1760.0
20.95	1762.0
20.96	1746.0
20.97	1759.0
20.98	1739.0
20.99	1749.0
21.0	1741.0
21.01	1721.0
21.02	1746.0
21.03	1753.0
21.04	1735.0
21.05	1705.0
21.06	1670.0
21.07	1664.0
21.08	1666.0
21.09	1706.0
21.1	1718.0
21.11	1718.0
21.12	1737.0
21.13	1761.0
21.14	1752.0
21.15	1727.0
21.16	1751.0
21.17	1756.0
21.18	1732.0
21.19	1736.0
21.2	1710.0
21.21	1717.0
21.22	1735.0
21.23	1705.0
21.24	1673.0
21.25	1678.0
21.26	1700.0
21.27	1688.0
21.28	1706.0
21.29	1703.0
21.3	1693.0
21.31	1637.0
21.32	1706.0
21.33	1698.0
21.34	1704.0
21.35	1680.0
21.36	1653.0
21.37	1651.0
21.38	1665.0
21.39	1698.0
21.4	1635.0
21.41	1638.0
21.42	1650.0
21.43	1664.0
21.44	1654.0
21.45	1662.0
21.46	1659.0
21.47	1650.0
21.48	1698.0
21.49	1682.0
21.5	1654.0
21.51	1647.0
21.52	1686.0
21.53	1714.0
21.54	1650.0
21.55	1649.0
21.56	1645.0
21.57	1652.0
21.58	1675.0
21.59	1652.0
21.6	1676.0
21.61	1643.0
21.62	1635.0
21.63	1650.0
21.64	1591.0
21.65	1594.0
21.66	1625.0
21.67	1634.0
21.68	1640.0
21.69	1633.0
21.7	1613.0
21.71	1636.0
21.72	1634.0
21.73	1607.0
21.74	1626.0
21.75	1661.0
21.76	1653.0
21.77	1628.0
21.78	1675.0
21.79	1614.0
21.8	1634.0
21.81	1618.0
21.82	1603.0
21.83	1625.0
21.84	1641.0
21.85	1647.0
21.86	1611.0
21.87	1601.0
21.88	1579.0
21.89	1604.0
21.9	1612.0
21.91	1633.0
21.92	1640.0
21.93	1614.0
21.94	1558.0
21.95	1633.0
21.96	1640.0
21.97	1657.0
21.98	1602.0
21.99	1575.0
22.0	1576.0
22.01	1588.0
22.02	1555.0
22.03	1561.0
22.04	1605.0
22.05	1641.0
22.06	1628.0
22.07	1615.0
22.08	1595.0
22.09	1585.0
22.1	1574.0
22.11	1609.0
22.12	1620.0
22.13	1618.0
22.14	1623.0
22.15	1635.0
22.16	1609.0
22.17	1628.0
22.18	1571.0
22.19	1588.0
22.2	1629.0
22.21	1611.0
22.22	1615.0
22.23	1615.0
22.24	1597.0
22.25	1549.0
22.26	1595.0
22.27	1603.0
22.28	1584.0
22.29	1571.0
22.3	1578.0
22.31	1611.0
22.32	1625.0
22.33	1572.0
22.34	1552.0
22.35	1577.0
22.36	1564.0
22.37	1555.0
22.38	1532.0
22.39	1568.0
22.4	1567.0
22.41	1535.0
22.42	1600.0
22.43	1579.0
22.44	1564.0
22.45	1566.0
22.46	1569.0
22.47	1590.0
22.48	1579.0
22.49	1544.0
22.5	1573.0
22.51	1569.0
22.52	1581.0
22.53	1565.0
22.54	1546.0
22.55	1620.0
22.56	1582.0
22.57	1509.0
22.58	1505.0
22.59	1551.0
22.6	1572.0
22.61	1539.0
22.62	1502.0
22.63	1549.0
22.64	1523.0
22.65	1522.0
22.66	1578.0
22.67	1621.0
22.68	1584.0
22.69	1598.0
22.7	1571.0
22.71	1540.0
22.72	1563.0
22.73	1574.0
22.74	1533.0
22.75	1498.0
22.76	1520.0
22.77	1510.0
22.78	1530.0
22.79	1551.0
22.8	1536.0
22.81	1556.0
22.82	1465.0
22.83	1543.0
22.84	1537.0
22.85	1532.0
22.86	1511.0
22.87	1552.0
22.88	1564.0
22.89	1526.0
22.9	1507.0
22.91	1520.0
22.92	1525.0
22.93	1511.0
22.94	1512.0
22.95	1521.0
22.96	1533.0
22.97	1527.0
22.98	1501.0
22.99	1484.0
23.0	1472.0
23.01	1541.0
23.02	1512.0
23.03	1508.0
23.04	1511.0
23.05	1497.0
23.06	1520.0
23.07	1492.0
23.08	1434.0
23.09	1472.0
23.1	1501.0
23.11	1541.0
23.12	1533.0
23.13	1513.0
23.14	1518.0
23.15	1507.0
23.16	1527.0
23.17	1504.0
23.18	1518.0
23.19	1497.0
23.2	1496.0
23.21	1507.0
23.22	1543.0
23.23	1484.0
23.24	1477.0
23.25	1484.0
23.26	1466.0
23.27	1533.0
23.28	1503.0
23.29	1496.0
23.3	1445.0
23.31	1445.0
23.32	1477.0
23.33	1486.0
23.34	1496.0
23.35	1511.0
23.36	1509.0
23.37	1504.0
23.38	1462.0
23.39	1481.0
23.4	1484.0
23.41	1472.0
23.42	1485.0
23.43	1446.0
23.44	1472.0
23.45	1505.0
23.46	1543.0
23.47	1455.0
23.48	1480.0
23.49	1458.0
23.5	1459.0
23.51	1460.0
23.52	1467.0
23.53	1451.0
23.54	1480.0
23.55	1477.0
23.56	1460.0
23.57	1447.0
23.58	1457.0
23.59	1475.0
23.6	1479.0
23.61	1470.0
23.62	1432.0
23.63	1401.0
23.64	1455.0
23.65	1461.0
23.66	1446.0
23.67	1482.0
23.68	1468.0
23.69	1458.0
23.7	1513.0
23.71	1502.0
23.72	1478.0
23.73	1464.0
23.74	1455.0
23.75	1479.0
23.76	1462.0
23.77	1449.0
23.78	1421.0
23.79	1453.0
23.8	1449.0
23.81	1445.0
23.82	1426.0
23.83	1432.0
23.84	1460.0
23.85	1454.0
23.86	1401.0
23.87	1438.0
23.88	1429.0
23.89	1436.0
23.9	1405.0
23.91	1458.0
23.92	1464.0
23.93	1432.0
23.94	1431.0
23.95	1456.0
23.96	1486.0
23.97	1445.0
23.98	1421.0
23.99	1422.0
24.0	1428.0
24.01	1416.0
24.02	1397.0
24.03	1413.0
24.04	1460.0
24.05	1435.0
24.06	1435.0
24.07	1438.0
24.08	1418.0
24.09	1437.0
24.1	1437.0
24.11	1443.0
24.12	1434.0
24.13	1450.0
24.14	1472.0
24.15	1448.0
24.16	1443.0
24.17	1459.0
24.18	1430.0
24.19	1404.0
24.2	1418.0
24.21	1421.0
24.22	1419.0
24.23	1416.0
24.24	1370.0
24.25	1368.0
24.26	1398.0
24.27	1422.0
24.28	1423.0
24.29	1407.0
24.3	1384.0
24.31	1400.0
24.32	1406.0
24.33	1375.0
24.34	1366.0
24.35	1386.0
24.36	1396.0
24.37	1364.0
24.38	1335.0
24.39	1363.0
24.4	1408.0
24.41	1397.0
24.42	1361.0
24.43	1371.0
24.44	1400.0
24.45	1424.0
24.46	1415.0
24.47	1387.0
24.48	1351.0
24.49	1367.0
24.5	1361.0
24.51	1389.0
24.52	1385.0
24.53	1377.0
24.54	1369.0
24.55	1406.0
24.56	1350.0
24.57	1349.0
24.58	1374.0
24.59	1383.0
24.6	1410.0
24.61	1428.0
24.62	1413.0
24.63	1362.0
24.64	1365.0
24.65	1392.0
24.66	1393.0
24.67	1358.0
24.68	1359.0
24.69	1325.0
24.7	1373.0
24.71	1389.0
24.72	1386.0
24.73	1358.0
24.74	1372.0
24.75	1357.0
24.76	1338.0
24.77	1362.0
24.78	1382.0
24.79	1354.0
24.8	1351.0
24.81	1365.0
24.82	1372.0
24.83	1375.0
24.84	1357.0
24.85	1337.0
24.86	1347.0
24.87	1359.0
24.88	1347.0
24.89	1354.0
24.9	1349.0
24.91	1384.0
24.92	1372.0
24.93	1357.0
24.94	1355.0
24.95	1345.0
24.96	1355.0
24.97	1359.0
24.98	1375.0
24.99	1359.0
25.0	1305.0
25.01	1340.0
25.02	1399.0
25.03	1410.0
25.04	1363.0
25.05	1339.0
25.06	1307.0
25.07	1299.0
25.08	1297.0
25.09	1303.0
25.1	1315.0
25.11	1307.0
25.12	1345.0
25.13	1340.0
25.14	1337.0
25.15	1330.0
25.16	1313.0
25.17	1322.0
25.18	1331.0
25.19	1335.0
25.2	1312.0
25.21	1324.0
25.22	1321.0
25.23	1293.0
25.24	1297.0
25.25	1353.0
25.26	1344.0
25.27	1319.0
25.28	1327.0
25.29	1331.0
25.3	1325.0
25.31	1340.0
25.32	1339.0
25.33	1321.0
25.34	1352.0
25.35	1347.0
25.36	1380.0
25.37	1392.0
25.38	1357.0
25.39	1304.0
25.4	1284.0
25.41	1288.0
25.42	1303.0
25.43	1331.0
25.44	1320.0
25.45	1288.0
25.46	1280.0
25.47	1284.0
25.48	1282.0
25.49	1309.0
25.5	1334.0
25.51	1310.0
25.52	1290.0
25.53	1280.0
25.54	1293.0
25.55	1307.0
25.56	1331.0
25.57	1330.0
25.58	1343.0
25.59	1346.0
25.6	1318.0
25.61	1291.0
25.62	1289.0
25.63	1315.0
25.64	1324.0
25.65	1322.0
25.66	1306.0
25.67	1287.0
25.68	1273.0
25.69	1282.0
25.7	1298.0
25.71	1310.0
25.72	1304.0
25.73	1316.0
25.74	1313.0
25.75	1296.0
25.76	1299.0
25.77	1286.0
25.78	1287.0
25.79	1314.0
25.8	1280.0
25.81	1276.0
25.82	1263.0
25.83	1264.0
25.84	1251.0
25.85	1250.0
25.86	1257.0
25.87	1242.0
25.88	1244.0
25.89	1248.0
25.9	1241.0
25.91	1248.0
25.92	1257.0
25.93	1256.0
25.94	1287.0
25.95	1286.0
25.96	1261.0
25.97	1264.0
25.98	1268.0
25.99	1242.0
26.0	1232.0
26.01	1258.0
26.02	1272.0
26.03	1257.0
26.04	1272.0
26.05	1296.0
26.06	1281.0
26.07	1250.0
26.08	1257.0
26.09	1264.0
26.1	1236.0
26.11	1228.0
26.12	1271.0
26.13	1291.0
26.14	1298.0
26.15	1299.0
26.16	1281.0
26.17	1259.0
26.18	1246.0
26.19	1263.0
26.2	1274.0
26.21	1239.0
26.22	1234.0
26.23	1287.0
26.24	1288.0
26.25	1272.0
26.26	1242.0
26.27	1214.0
26.28	1237.0
26.29	1259.0
26.3	1242.0
26.31	1234.0
26.32	1242.0
26.33	1249.0
26.34	1244.0
26.35	1250.0
26.36	1254.0
26.37	1243.0
26.38	1254.0
26.39	1268.0
26.4	1263.0
26.41	1234.0
26.42	1220.0
26.43	1259.0
26.44	1254.0
26.45	1224.0
26.46	1228.0
26.47	1258.0
26.48	1254.0
26.49	1195.0
26.5	1225.0
26.51	1278.0
26.52	1247.0
26.53	1214.0
26.54	1237.0
26.55	1250.0
26.56	1235.0
26.57	1256.0
26.58	1253.0
26.59	1231.0
26.6	1223.0
26.61	1209.0
26.62	1218.0
26.63	1200.0
26.64	1197.0
26.65	1214.0
26.66	1244.0
26.67	1247.0
26.68	1211.0
26.69	1216.0
26.7	1252.0
26.71	1260.0
26.72	1242.0
26.73	1227.0
26.74	1223.0
26.75	1221.0
26.76	1232.0
26.77	1247.0
26.78	1259.0
26.79	1250.0
26.8	1220.0
26.81	1212.0
26.82	1217.0
26.83	1218.0
26.84	1217.0
26.85	1189.0
26.86	1170.0
26.87	1187.0
26.88	1211.0
26.89	1224.0
26.9	1204.0
26.91	1190.0
26.92	1210.0
26.93	1225.0
26.94	1229.0
26.95	1211.0
26.96	1201.0
26.97	1215.0
26.98	1207.0
26.99	1187.0
27.0	1185.0
27.01	1196.0
27.02	1210.0
27.03	1208.0
27.04	1189.0
27.05	1175.0
27.06	1175.0
27.07	1174.0
27.08	1187.0
27.09	1204.0
27.1	1208.0
27.11	1204.0
27.12	1189.0
27.13	1192.0
27.14	1194.0
27.15	1189.0
27.16	1184.0
27.17	1194.0
27.18	1217.0
27.19	1196.0
27.2	1176.0
27.21	1189.0
27.22	1186.0
27.23	1158.0
27.24	1136.0
27.25	1126.0
27.26	1118.0
27.27	1132.0
27.28	1133.0
27.29	1124.0
27.3	1148.0
27.31	1187.0
27.32	1191.0
27.33	1182.0
27.34	1181.0
27.35	1171.0
27.36	1180.0
27.37	1183.0
27.38	1169.0
27.39	1175.0
27.4	1180.0
27.41	1174.0
27.42	1184.0
27.43	1169.0
27.44	1158.0
27.45	1159.0
27.46	1164.0
27.47	1186.0
27.48	1199.0
27.49	1219.0
27.5	1213.0
27.51	1166.0
27.52	1162.0
27.53	1189.0
27.54	1179.0
27.55	1162.0
27.56	1144.0
27.57	1126.0
27.58	1118.0
27.59	1117.0
27.6	1134.0
27.61	1156.0
27.62	1156.0
27.63	1173.0
27.64	1199.0
27.65	1179.0
27.66	1158.0
27.67	1144.0
27.68	1133.0
27.69	1139.0
27.7	1156.0
27.71	1170.0
27.72	1193.0
27.73	1199.0
27.74	1162.0
27.75	1125.0
27.76	1117.0
27.77	1157.0
27.78	1186.0
27.79	1161.0
27.8	1136.0
27.81	1125.0
27.82	1113.0
27.83	1116.0
27.84	1134.0
27.85	1130.0
27.86	1133.0
27.87	1144.0
27.88	1161.0
27.89	1153.0
27.9	1114.0
27.91	1092.0
27.92	1132.0
27.93	1177.0
27.94	1165.0
27.95	1142.0
27.96	1136.0
27.97	1115.0
27.98	1100.0
27.99	1120.0
28.0	1167.0
28.01	1170.0
28.02	1130.0
28.03	1111.0
28.04	1115.0
28.05	1121.0
28.06	1135.0
28.07	1149.0
28.08	1160.0
28.09	1146.0
28.1	1152.0
28.11	1172.0
28.12	1146.0
28.13	1123.0
28.14	1120.0
28.15	1127.0
28.16	1135.0
28.17	1148.0
28.18	1151.0
28.19	1151.0
28.2	1146.0
28.21	1140.0
28.22	1121.0
28.23	1093.0
28.24	1095.0
28.25	1108.0
28.26	1116.0
28.27	1133.0
28.28	1146.0
28.29	1125.0
28.3	1091.0
28.31	1092.0
28.32	1131.0
28.33	1138.0
28.34	1114.0
28.35	1119.0
28.36	1117.0
28.37	1091.0
28.38	1085.0
28.39	1114.0
28.4	1115.0
28.41	1110.0
28.42	1111.0
28.43	1102.0
28.44	1109.0
28.45	1085.0
28.46	1060.0
28.47	1065.0
28.48	1095.0
28.49	1102.0
28.5	1093.0
28.51	1094.0
28.52	1104.0
28.53	1086.0
28.54	1108.0
28.55	1122.0
28.56	1116.0
28.57	1099.0
28.58	1082.0
28.59	1079.0
28.6	1098.0
28.61	1108.0
28.62	1116.0
28.63	1126.0
28.64	1137.0
28.65	1129.0
28.66	1123.0
28.67	1118.0
28.68	1097.0
28.69	1065.0
28.7	1065.0
28.71	1092.0
28.72	1093.0
28.73	1103.0
28.74	1133.0
28.75	1106.0
28.76	1084.0
28.77	1094.0
28.78	1097.0
28.79	1086.0
28.8	1077.0
28.81	1113.0
28.82	1126.0
28.83	1122.0
28.84	1094.0
28.85	1087.0
28.86	1074.0
28.87	1054.0
28.88	1043.0
28.89	1073.0
28.9	1088.0
28.91	1048.0
28.92	1058.0
28.93	1081.0
28.94	1043.0
28.95	1054.0
28.96	1063.0
28.97	1069.0
28.98	1065.0
28.99	1066.0
29.0	1070.0
29.01	1068.0
29.02	1077.0
29.03	1087.0
29.04	1084.0
29.05	1080.0
29.06	1082.0
29.07	1095.0
29.08	1102.0
29.09	1079.0
29.1	1095.0
29.11	1108.0
29.12	1094.0
29.13	1085.0
29.14	1080.0
29.15	1100.0
29.16	1084.0
29.17	1076.0
29.18	1083.0
29.19	1070.0
29.2	1060.0
29.21	1099.0
29.22	1112.0
29.23	1079.0
29.24	1090.0
29.25	1108.0
29.26	1051.0
29.27	1049.0
29.28	1052.0
29.29	1051.0
29.3	1073.0
29.31	1080.0
29.32	1098.0
29.33	1070.0
29.34	1044.0
29.35	1072.0
29.36	1060.0
29.37	1058.0
29.38	1051.0
29.39	1046.0
29.4	1020.0
29.41	1027.0
29.42	1041.0
29.43	1060.0
29.44	1065.0
29.45	1067.0
29.46	1035.0
29.47	1038.0
29.48	1057.0
29.49	1076.0
29.5	1058.0
29.51	1068.0
29.52	1063.0
29.53	1050.0
29.54	1044.0
29.55	1060.0
29.56	1058.0
29.57	1068.0
29.58	1068.0
29.59	1036.0
29.6	1034.0
29.61	1072.0
29.62	1042.0
29.63	1029.0
29.64	1038.0
29.65	1033.0
29.66	1063.0
29.67	1053.0
29.68	1054.0
29.69	1056.0
29.7	1050.0
29.71	1042.0
29.72	1031.0
29.73	1061.0
29.74	1069.0
29.75	1075.0
29.76	1082.0
29.77	1094.0
29.78	1093.0
29.79	1076.0
29.8	1085.0
29.81	1102.0
29.82	1071.0
29.83	1043.0
29.84	1079.0
29.85	1090.0
29.86	1093.0
29.87	1084.0
29.88	1051.0
29.89	1029.0
29.9	1069.0
29.91	1113.0
29.92	1129.0
29.93	1131.0
29.94	1103.0
29.95	1128.0
29.96	1147.0
29.97	1176.0
29.98	1189.0
29.99	1216.0
30.0	1299.0
30.01	1370.0
30.02	1477.0
30.03	1502.0
30.04	1550.0
30.05	1566.0
30.06	1623.0
30.07	1694.0
30.08	1676.0
30.09	1692.0
30.1	1709.0
30.11	1745.0
30.12	1751.0
30.13	1704.0
30.14	1687.0
30.15	1679.0
30.16	1628.0
30.17	1555.0
30.18	1472.0
30.19	1422.0
30.2	1378.0
30.21	1364.0
30.22	1341.0
30.23	1308.0
30.24	1280.0
30.25	1245.0
30.26	1209.0
30.27	1161.0
30.28	1133.0
30.29	1112.0
30.3	1132.0
30.31	1144.0
30.32	1107.0
30.33	1039.0
30.34	1046.0
30.35	1032.0
30.36	1053.0
30.37	1073.0
30.38	1061.0
30.39	1104.0
30.4	1095.0
30.41	1056.0
30.42	1049.0
30.43	1039.0
30.44	1074.0
30.45	1029.0
30.46	1031.0
30.47	1028.0
30.48	1020.0
30.49	1065.0
30.5	1018.0
30.51	998.0
30.52	1012.0
30.53	1017.0
30.54	1014.0
30.55	1012.0
30.56	993.0
30.57	1005.0
30.58	1020.0
30.59	1032.0
30.6	996.0
30.61	969.0
30.62	996.0
30.63	1054.0
30.64	1044.0
30.65	979.0
30.66	976.0
30.67	976.0
30.68	973.0
30.69	1003.0
30.7	1017.0
30.71	983.0
30.72	1007.0
30.73	1030.0
30.74	1028.0
30.75	1025.0
30.76	1018.0
30.77	997.0
30.78	977.0
30.79	977.0
30.8	970.0
30.81	980.0
30.82	978.0
30.83	989.0
30.84	1016.0
30.85	966.0
30.86	975.0
30.87	1009.0
30.88	975.0
30.89	966.0
30.9	970.0
30.91	989.0
30.92	986.0
30.93	1019.0
30.94	1000.0
30.95	1019.0
30.96	1014.0
30.97	996.0
30.98	992.0
30.99	1039.0
31.0	1013.0
31.01	999.0
31.02	980.0
31.03	990.0
31.04	960.0
31.05	966.0
31.06	967.0
31.07	979.0
31.08	1011.0
31.09	979.0
31.1	969.0
31.11	954.0
31.12	979.0
31.13	1014.0
31.14	959.0
31.15	947.0
31.16	949.0
31.17	939.0
31.18	956.0
31.19	977.0
31.2	993.0
31.21	949.0
31.22	916.0
31.23	959.0
31.24	971.0
31.25	987.0
31.26	996.0
31.27	988.0
31.28	941.0
31.29	968.0
31.3	941.0
31.31	938.0
31.32	981.0
31.33	934.0
31.34	965.0
31.35	943.0
31.36	984.0
31.37	1007.0
31.38	971.0
31.39	969.0
31.4	993.0
31.41	969.0
31.42	977.0
31.43	973.0
31.44	951.0
31.45	975.0
31.46	950.0
31.47	940.0
31.48	1000.0
31.49	972.0
31.5	955.0
31.51	971.0
31.52	934.0
31.53	946.0
31.54	970.0
31.55	921.0
31.56	944.0
31.57	946.0
31.58	972.0
31.59	983.0
31.6	988.0
31.61	903.0
31.62	900.0
31.63	948.0
31.64	989.0
31.65	977.0
31.66	954.0
31.67	953.0
31.68	940.0
31.69	895.0
31.7	919.0
31.71	941.0
31.72	927.0
31.73	971.0
31.74	951.0
31.75	937.0
31.76	933.0
31.77	964.0
31.78	944.0
31.79	959.0
31.8	988.0
31.81	940.0
31.82	921.0
31.83	924.0
31.84	932.0
31.85	941.0
31.86	951.0
31.87	929.0
31.88	944.0
31.89	962.0
31.9	951.0
31.91	961.0
31.92	959.0
31.93	936.0
31.94	923.0
31.95	895.0
31.96	903.0
31.97	930.0
31.98	947.0
31.99	938.0
32.0	928.0
32.01	938.0
32.02	950.0
32.03	959.0
32.04	955.0
32.05	919.0
32.06	925.0
32.07	915.0
32.08	923.0
32.09	935.0
32.1	978.0
32.11	904.0
32.12	931.0
32.13	977.0
32.14	960.0
32.15	902.0
32.16	907.0
32.17	962.0
32.18	951.0
32.19	941.0
32.2	962.0
32.21	945.0
32.22	964.0
32.23	962.0
32.24	949.0
32.25	946.0
32.26	955.0
32.27	942.0
32.28	927.0
32.29	934.0
32.3	937.0
32.31	936.0
32.32	940.0
32.33	951.0
32.34	933.0
32.35	898.0
32.36	911.0
32.37	932.0
32.38	960.0
32.39	923.0
32.4	923.0
32.41	920.0
32.42	928.0
32.43	913.0
32.44	932.0
32.45	937.0
32.46	883.0
32.47	890.0
32.48	897.0
32.49	903.0
32.5	931.0
32.51	941.0
32.52	929.0
32.53	899.0
32.54	875.0
32.55	902.0
32.56	916.0
32.57	925.0
32.58	939.0
32.59	978.0
32.6	949.0
32.61	927.0
32.62	930.0
32.63	927.0
32.64	932.0
32.65	931.0
32.66	922.0
32.67	903.0
32.68	923.0
32.69	933.0
32.7	937.0
32.71	938.0
32.72	930.0
32.73	908.0
32.74	943.0
32.75	936.0
32.76	934.0
32.77	905.0
32.78	900.0
32.79	881.0
32.8	898.0
32.81	933.0
32.82	907.0
32.83	911.0
32.84	918.0
32.85	929.0
32.86	947.0
32.87	933.0
32.88	907.0
32.89	920.0
32.9	903.0
32.91	876.0
32.92	887.0
32.93	888.0
32.94	881.0
32.95	908.0
32.96	900.0
32.97	883.0
32.98	929.0
32.99	919.0
33.0	903.0
33.01	883.0
33.02	938.0
33.03	942.0
33.04	923.0
33.05	906.0
33.06	882.0
33.07	875.0
33.08	913.0
33.09	891.0
33.1	900.0
33.11	922.0
33.12	905.0
33.13	927.0
33.14	944.0
33.15	896.0
33.16	894.0
33.17	925.0
33.18	901.0
33.19	936.0
33.2	973.0
33.21	928.0
33.22	923.0
33.23	937.0
33.24	927.0
33.25	928.0
33.26	974.0
33.27	948.0
33.28	884.0
33.29	873.0
33.3	905.0
33.31	920.0
33.32	918.0
33.33	913.0
33.34	895.0
33.35	912.0
33.36	892.0
33.37	903.0
33.38	904.0
33.39	893.0
33.4	903.0
33.41	876.0
33.42	893.0
33.43	918.0
33.44	903.0
33.45	925.0
33.46	897.0
33.47	889.0
33.48	891.0
33.49	906.0
33.5	929.0
33.51	924.0
33.52	889.0
33.53	890.0
33.54	911.0
33.55	909.0
33.56	908.0
33.57	903.0
33.58	932.0
33.59	926.0
33.6	889.0
33.61	889.0
33.62	856.0
33.63	862.0
33.64	886.0
33.65	880.0
33.66	867.0
33.67	876.0
33.68	867.0
33.69	867.0
33.7	891.0
33.71	899.0
33.72	897.0
33.73	897.0
33.74	878.0
33.75	871.0
33.76	890.0
33.77	880.0
33.78	859.0
33.79	890.0
33.8	912.0
33.81	931.0
33.82	952.0
33.83	899.0
33.84	885.0
33.85	880.0
33.86	880.0
33.87	905.0
33.88	924.0
33.89	922.0
33.9	897.0
33.91	903.0
33.92	896.0
33.93	891.0
33.94	887.0
33.95	891.0
33.96	893.0
33.97	888.0
33.98	888.0
33.99	899.0
34.0	898.0
34.01	897.0
34.02	883.0
34.03	905.0
34.04	895.0
34.05	903.0
34.06	918.0
34.07	897.0
34.08	897.0
34.09	910.0
34.1	917.0
34.11	912.0
34.12	915.0
34.13	907.0
34.14	911.0
34.15	906.0
34.16	923.0
34.17	912.0
34.18	888.0
34.19	894.0
34.2	913.0
34.21	917.0
34.22	901.0
34.23	892.0
34.24	894.0
34.25	896.0
34.26	938.0
34.27	925.0
34.28	918.0
34.29	930.0
34.3	927.0
34.31	910.0
34.32	938.0
34.33	943.0
34.34	933.0
34.35	901.0
34.36	894.0
34.37	907.0
34.38	901.0
34.39	905.0
34.4	929.0
34.41	932.0
34.42	960.0
34.43	965.0
34.44	941.0
34.45	925.0
34.46	920.0
34.47	919.0
34.48	923.0
34.49	902.0
34.5	909.0
34.51	916.0
34.52	913.0
34.53	894.0
34.54	899.0
34.55	909.0
34.56	938.0
34.57	933.0
34.58	922.0
34.59	934.0
34.6	924.0
34.61	877.0
34.62	878.0
34.63	888.0
34.64	898.0
34.65	917.0
34.66	934.0
34.67	919.0
34.68	913.0
34.69	920.0
34.7	925.0
34.71	944.0
34.72	956.0
34.73	941.0
34.74	926.0
34.75	937.0
34.76	940.0
34.77	916.0
34.78	908.0
34.79	927.0
34.8	958.0
34.81	950.0
34.82	954.0
34.83	964.0
34.84	941.0
34.85	931.0
34.86	946.0
34.87	909.0
34.88	909.0
34.89	961.0
34.9	978.0
34.91	961.0
34.92	951.0
34.93	950.0
34.94	958.0
34.95	959.0
34.96	951.0
34.97	948.0
34.98	952.0
34.99	953.0
35.0	953.0
35.01	956.0
35.02	979.0
35.03	1024.0
35.04	1056.0
35.05	1042.0
35.06	1027.0
35.07	1040.0
35.08	1053.0
35.09	1048.0
35.1	1045.0
35.11	1038.0
35.12	1042.0
35.13	1060.0
35.14	1067.0
35.15	1085.0
35.16	1115.0
35.17	1129.0
35.18	1127.0
35.19	1143.0
35.2	1196.0
35.21	1234.0
35.22	1261.0
35.23	1282.0
35.24	1336.0
35.25	1399.0
35.26	1443.0
35.27	1496.0
35.28	1567.0
35.29	1657.0
35.3	1762.0
35.31	1893.0
35.32	2088.0
35.33	2258.0
35.34	2494.0
35.35	2785.0
35.36	3102.0
35.37	3445.0
35.38	3855.0
35.39	4215.0
35.4	4501.0
35.41	4833.0
35.42	5162.0
35.43	5499.0
35.44	5809.0
35.45	5960.0
35.46	6026.0
35.47	6118.0
35.48	6195.0
35.49	6156.0
35.5	6080.0
35.51	5897.0
35.52	5711.0
35.53	5537.0
35.54	5223.0
35.55	4974.0
35.56	4753.0
35.57	4462.0
35.58	4204.0
35.59	3933.0
35.6	3605.0
35.61	3323.0
35.62	3122.0
35.63	2935.0
35.64	2719.0
35.65	2524.0
35.66	2384.0
35.67	2258.0
35.68	2116.0
35.69	1990.0
35.7	1899.0
35.71	1880.0
35.72	1855.0
35.73	1765.0
35.74	1649.0
35.75	1579.0
35.76	1542.0
35.77	1507.0
35.78	1498.0
35.79	1462.0
35.8	1426.0
35.81	1387.0
35.82	1354.0
35.83	1364.0
35.84	1380.0
35.85	1343.0
35.86	1275.0
35.87	1271.0
35.88	1273.0
35.89	1221.0
35.9	1202.0
35.91	1200.0
35.92	1178.0
35.93	1143.0
35.94	1120.0
35.95	1089.0
35.96	1084.0
35.97	1082.0
35.98	1065.0
35.99	1053.0
36.0	1034.0
36.01	1045.0
36.02	1052.0
36.03	1029.0
36.04	1014.0
36.05	1004.0
36.06	998.0
36.07	999.0
36.08	1001.0
36.09	1006.0
36.1	1011.0
36.11	1013.0
36.12	1014.0
36.13	1019.0
36.14	1002.0
36.15	991.0
36.16	1011.0
36.17	1010.0
36.18	989.0
36.19	986.0
36.2	986.0
36.21	984.0
36.22	983.0
36.23	1003.0
36.24	997.0
36.25	965.0
36.26	949.0
36.27	961.0
36.28	963.0
36.29	953.0
36.3	942.0
36.31	926.0
36.32	936.0
36.33	941.0
36.34	934.0
36.35	905.0
36.36	879.0
36.37	911.0
36.38	905.0
36.39	881.0
36.4	894.0
36.41	889.0
36.42	885.0
36.43	890.0
36.44	884.0
36.45	875.0
36.46	877.0
36.47	880.0
36.48	896.0
36.49	892.0
36.5	855.0
36.51	841.0
36.52	871.0
36.53	902.0
36.54	889.0
36.55	876.0
36.56	881.0
36.57	857.0
36.58	859.0
36.59	880.0
36.6	886.0
36.61	864.0
36.62	864.0
36.63	885.0
36.64	857.0
36.65	858.0
36.66	875.0
36.67	873.0
36.68	890.0
36.69	904.0
36.7	878.0
36.71	864.0
36.72	867.0
36.73	874.0
36.74	862.0
36.75	849.0
36.76	878.0
36.77	862.0
36.78	834.0
36.79	846.0
36.8	858.0
36.81	875.0
36.82	879.0
36.83	868.0
36.84	861.0
36.85	878.0
36.86	867.0
36.87	844.0
36.88	851.0
36.89	854.0
36.9	863.0
36.91	877.0
36.92	885.0
36.93	875.0
36.94	878.0
36.95	886.0
36.96	884.0
36.97	911.0
36.98	943.0
36.99	937.0
37.0	968.0
37.01	992.0
37.02	987.0
37.03	1005.0
37.04	1021.0
37.05	1046.0
37.06	1067.0
37.07	1071.0
37.08	1060.0
37.09	1079.0
37.1	1101.0
37.11	1103.0
37.12	1118.0
37.13	1113.0
37.14	1086.0
37.15	1076.0
37.16	1093.0
37.17	1103.0
37.18	1089.0
37.19	1082.0
37.2	1071.0
37.21	1057.0
37.22	1026.0
37.23	996.0
37.24	987.0
37.25	981.0
37.26	942.0
37.27	931.0
37.28	947.0
37.29	972.0
37.3	966.0
37.31	929.0
37.32	918.0
37.33	937.0
37.34	944.0
37.35	921.0
37.36	901.0
37.37	915.0
37.38	896.0
37.39	900.0
37.4	910.0
37.41	876.0
37.42	859.0
37.43	884.0
37.44	899.0
37.45	889.0
37.46	876.0
37.47	873.0
37.48	876.0
37.49	882.0
37.5	888.0
37.51	881.0
37.52	848.0
37.53	849.0
37.54	860.0
37.55	850.0
37.56	854.0
37.57	860.0
37.58	850.0
37.59	851.0
37.6	859.0
37.61	859.0
37.62	863.0
37.63	854.0
37.64	856.0
37.65	844.0
37.66	843.0
37.67	846.0
37.68	820.0
37.69	806.0
37.7	827.0
37.71	878.0
37.72	868.0
37.73	869.0
37.74	859.0
37.75	839.0
37.76	814.0
37.77	816.0
37.78	823.0
37.79	829.0
37.8	813.0
37.81	803.0
37.82	832.0
37.83	838.0
37.84	819.0
37.85	829.0
37.86	809.0
37.87	797.0
37.88	824.0
37.89	843.0
37.9	870.0
37.91	860.0
37.92	817.0
37.93	812.0
37.94	843.0
37.95	847.0
37.96	850.0
37.97	863.0
37.98	853.0
37.99	813.0
38.0	808.0
38.01	818.0
38.02	831.0
38.03	834.0
38.04	821.0
38.05	826.0
38.06	827.0
38.07	812.0
38.08	824.0
38.09	822.0
38.1	811.0
38.11	837.0
38.12	841.0
38.13	854.0
38.14	857.0
38.15	833.0
38.16	830.0
38.17	836.0
38.18	840.0
38.19	832.0
38.2	832.0
38.21	828.0
38.22	830.0
38.23	823.0
38.24	810.0
38.25	818.0
38.26	830.0
38.27	821.0
38.28	817.0
38.29	833.0
38.3	822.0
38.31	810.0
38.32	806.0
38.33	819.0
38.34	840.0
38.35	790.0
38.36	799.0
38.37	831.0
38.38	828.0
38.39	830.0
38.4	813.0
38.41	795.0
38.42	798.0
38.43	806.0
38.44	820.0
38.45	856.0
38.46	834.0
38.47	824.0
38.48	822.0
38.49	810.0
38.5	805.0
38.51	799.0
38.52	798.0
38.53	803.0
38.54	803.0
38.55	829.0
38.56	826.0
38.57	819.0
38.58	816.0
38.59	808.0
38.6	788.0
38.61	822.0
38.62	826.0
38.63	802.0
38.64	815.0
38.65	817.0
38.66	800.0
38.67	825.0
38.68	851.0
38.69	828.0
38.7	820.0
38.71	839.0
38.72	817.0
38.73	806.0
38.74	819.0
38.75	817.0
38.76	818.0
38.77	808.0
38.78	796.0
38.79	796.0
38.8	800.0
38.81	819.0
38.82	805.0
38.83	776.0
38.84	786.0
38.85	831.0
38.86	852.0
38.87	843.0
38.88	830.0
38.89	808.0
38.9	787.0
38.91	816.0
38.92	829.0
38.93	816.0
38.94	815.0
38.95	834.0
38.96	826.0
38.97	823.0
38.98	846.0
38.99	847.0
39.0	809.0
39.01	774.0
39.02	761.0
39.03	784.0
39.04	784.0
39.05	784.0
39.06	775.0
39.07	797.0
39.08	812.0
39.09	814.0
39.1	828.0
39.11	836.0
39.12	824.0
39.13	802.0
39.14	801.0
39.15	802.0
39.16	814.0
39.17	812.0
39.18	811.0
39.19	799.0
39.2	834.0
39.21	821.0
39.22	794.0
39.23	813.0
39.24	813.0
39.25	818.0
39.26	808.0
39.27	807.0
39.28	806.0
39.29	812.0
39.3	776.0
39.31	762.0
39.32	788.0
39.33	784.0
39.34	790.0
39.35	811.0
39.36	771.0
39.37	777.0
39.38	811.0
39.39	801.0
39.4	807.0
39.41	782.0
39.42	814.0
39.43	841.0
39.44	828.0
39.45	818.0
39.46	798.0
39.47	809.0
39.48	809.0
39.49	806.0
39.5	781.0
39.51	757.0
39.52	773.0
39.53	784.0
39.54	794.0
39.55	809.0
39.56	819.0
39.57	781.0
39.58	775.0
39.59	795.0
39.6	821.0
39.61	817.0
39.62	813.0
39.63	834.0
39.64	821.0
39.65	780.0
39.66	776.0
39.67	783.0
39.68	804.0
39.69	809.0
39.7	803.0
39.71	806.0
39.72	803.0
39.73	768.0
39.74	760.0
39.75	792.0
39.76	775.0
39.77	762.0
39.78	802.0
39.79	790.0
39.8	755.0
39.81	766.0
39.82	780.0
39.83	828.0
39.84	820.0
39.85	804.0
39.86	804.0
39.87	788.0
39.88	790.0
39.89	803.0
39.9	796.0
39.91	794.0
39.92	794.0
39.93	781.0
39.94	787.0
39.95	795.0
39.96	808.0
39.97	786.0
39.98	772.0
39.99	790.0
40.0	762.0
40.01	783.0
40.02	781.0
40.03	766.0
40.04	807.0
40.05	833.0
40.06	810.0
40.07	807.0
40.08	825.0
40.09	849.0
40.1	829.0
40.11	801.0
40.12	776.0
40.13	756.0
40.14	783.0
40.15	789.0
40.16	779.0
40.17	787.0
40.18	797.0
40.19	775.0
40.2	787.0
40.21	778.0
40.22	773.0
40.23	804.0
40.24	772.0
40.25	790.0
40.26	803.0
40.27	793.0
40.28	810.0
40.29	786.0
40.3	765.0
40.31	762.0
40.32	761.0
40.33	749.0
40.34	784.0
40.35	800.0
40.36	789.0
40.37	775.0
40.38	820.0
40.39	830.0
40.4	791.0
40.41	816.0
40.42	814.0
40.43	781.0
40.44	787.0
40.45	784.0
40.46	817.0
40.47	828.0
40.48	814.0
40.49	783.0
40.5	784.0
40.51	785.0
40.52	813.0
40.53	799.0
40.54	787.0
40.55	813.0
40.56	796.0
40.57	782.0
40.58	767.0
40.59	820.0
40.6	814.0
40.61	830.0
40.62	805.0
40.63	764.0
40.64	782.0
40.65	796.0
40.66	785.0
40.67	776.0
40.68	777.0
40.69	778.0
40.7	785.0
40.71	789.0
40.72	766.0
40.73	750.0
40.74	771.0
40.75	770.0
40.76	776.0
40.77	787.0
40.78	771.0
40.79	783.0
40.8	774.0
40.81	758.0
40.82	783.0
40.83	759.0
40.84	766.0
40.85	773.0
40.86	774.0
40.87	813.0
40.88	807.0
40.89	824.0
40.9	850.0
40.91	838.0
40.92	800.0
40.93	799.0
40.94	786.0
40.95	796.0
40.96	801.0
40.97	770.0
40.98	788.0
40.99	787.0
41.0	789.0
41.01	774.0
41.02	821.0
41.03	779.0
41.04	794.0
41.05	793.0
41.06	784.0
41.07	754.0
41.08	764.0
41.09	807.0
41.1	803.0
41.11	808.0
41.12	790.0
41.13	765.0
41.14	764.0
41.15	795.0
41.16	810.0
41.17	809.0
41.18	768.0
41.19	758.0
41.2	795.0
41.21	795.0
41.22	800.0
41.23	783.0
41.24	777.0
41.25	799.0
41.26	746.0
41.27	745.0
41.28	794.0
41.29	783.0
41.3	819.0
41.31	816.0
41.32	792.0
41.33	799.0
41.34	780.0
41.35	744.0
41.36	756.0
41.37	768.0
41.38	784.0
41.39	800.0
41.4	809.0
41.41	801.0
41.42	811.0
41.43	786.0
41.44	769.0
41.45	778.0
41.46	783.0
41.47	832.0
41.48	820.0
41.49	794.0
41.5	784.0
41.51	794.0
41.52	837.0
41.53	776.0
41.54	800.0
41.55	771.0
41.56	774.0
41.57	773.0
41.58	808.0
41.59	760.0
41.6	791.0
41.61	795.0
41.62	782.0
41.63	789.0
41.64	827.0
41.65	809.0
41.66	791.0
41.67	772.0
41.68	780.0
41.69	799.0
41.7	820.0
41.71	823.0
41.72	816.0
41.73	813.0
41.74	835.0
41.75	814.0
41.76	819.0
41.77	796.0
41.78	809.0
41.79	815.0
41.8	828.0
41.81	805.0
41.82	810.0
41.83	821.0
41.84	796.0
41.85	808.0
41.86	798.0
41.87	808.0
41.88	838.0
41.89	806.0
41.9	778.0
41.91	762.0
41.92	810.0
41.93	828.0
41.94	800.0
41.95	838.0
41.96	819.0
41.97	780.0
41.98	803.0
41.99	793.0
42.0	823.0
42.01	832.0
42.02	789.0
42.03	775.0
42.04	825.0
42.05	852.0
42.06	824.0
42.07	816.0
42.08	820.0
42.09	816.0
42.1	828.0
42.11	827.0
42.12	835.0
42.13	827.0
42.14	806.0
42.15	797.0
42.16	786.0
42.17	821.0
42.18	823.0
42.19	831.0
42.2	855.0
42.21	843.0
42.22	805.0
42.23	797.0
42.24	783.0
42.25	827.0
42.26	842.0
42.27	859.0
42.28	860.0
42.29	790.0
42.3	784.0
42.31	826.0
42.32	830.0
42.33	819.0
42.34	815.0
42.35	833.0
42.36	838.0
42.37	832.0
42.38	837.0
42.39	797.0
42.4	810.0
42.41	842.0
42.42	855.0
42.43	870.0
42.44	840.0
42.45	833.0
42.46	850.0
42.47	836.0
42.48	821.0
42.49	823.0
42.5	844.0
42.51	870.0
42.52	866.0
42.53	839.0
42.54	871.0
42.55	861.0
42.56	826.0
42.57	843.0
42.58	903.0
42.59	892.0
42.6	881.0
42.61	860.0
42.62	888.0
42.63	927.0
42.64	908.0
42.65	921.0
42.66	913.0
42.67	900.0
42.68	890.0
42.69	921.0
42.7	941.0
42.71	983.0
42.72	978.0
42.73	935.0
42.74	933.0
42.75	962.0
42.76	1003.0
42.77	994.0
42.78	961.0
42.79	979.0
42.8	1011.0
42.81	1032.0
42.82	1029.0
42.83	1035.0
42.84	1059.0
42.85	1098.0
42.86	1138.0
42.87	1161.0
42.88	1182.0
42.89	1230.0
42.9	1276.0
42.91	1357.0
42.92	1427.0
42.93	1460.0
42.94	1582.0
42.95	1686.0
42.96	1809.0
42.97	2046.0
42.98	2222.0
42.99	2405.0
43.0	2602.0
43.01	2841.0
43.02	3048.0
43.03	3261.0
43.04	3452.0
43.05	3623.0
43.06	3727.0
43.07	3869.0
43.08	3995.0
43.09	4179.0
43.1	4289.0
43.11	4332.0
43.12	4390.0
43.13	4384.0
43.14	4373.0
43.15	4400.0
43.16	4354.0
43.17	4202.0
43.18	4116.0
43.19	3997.0
43.2	3873.0
43.21	3720.0
43.22	3561.0
43.23	3382.0
43.24	3266.0
43.25	3074.0
43.26	2948.0
43.27	2811.0
43.28	2686.0
43.29	2552.0
43.3	2406.0
43.31	2293.0
43.32	2165.0
43.33	2107.0
43.34	2023.0
43.35	1940.0
43.36	1818.0
43.37	1734.0
43.38	1702.0
43.39	1644.0
43.4	1624.0
43.41	1539.0
43.42	1524.0
43.43	1498.0
43.44	1424.0
43.45	1442.0
43.46	1379.0
43.47	1356.0
43.48	1325.0
43.49	1286.0
43.5	1303.0
43.51	1304.0
43.52	1297.0
43.53	1292.0
43.54	1281.0
43.55	1236.0
43.56	1182.0
43.57	1158.0
43.58	1195.0
43.59	1193.0
43.6	1131.0
43.61	1134.0
43.62	1151.0
43.63	1152.0
43.64	1143.0
43.65	1133.0
43.66	1126.0
43.67	1066.0
43.68	1085.0
43.69	1124.0
43.7	1126.0
43.71	1116.0
43.72	1138.0
43.73	1164.0
43.74	1148.0
43.75	1099.0
43.76	1098.0
43.77	1106.0
43.78	1108.0
43.79	1124.0
43.8	1123.0
43.81	1118.0
43.82	1131.0
43.83	1124.0
43.84	1093.0
43.85	1103.0
43.86	1103.0
43.87	1087.0
43.88	1064.0
43.89	1040.0
43.9	1049.0
43.91	1048.0
43.92	1028.0
43.93	1035.0
43.94	1015.0
43.95	1043.0
43.96	1065.0
43.97	1023.0
43.98	963.0
43.99	969.0
44.0	985.0
44.01	967.0
44.02	981.0
44.03	949.0
44.04	914.0
44.05	932.0
44.06	899.0
44.07	892.0
44.08	906.0
44.09	901.0
44.1	888.0
44.11	867.0
44.12	840.0
44.13	863.0
44.14	907.0
44.15	891.0
44.16	826.0
44.17	837.0
44.18	831.0
44.19	832.0
44.2	847.0
44.21	839.0
44.22	864.0
44.23	823.0
44.24	830.0
44.25	793.0
44.26	816.0
44.27	838.0
44.28	812.0
44.29	837.0
44.3	856.0
44.31	854.0
44.32	835.0
44.33	833.0
44.34	805.0
44.35	786.0
44.36	792.0
44.37	809.0
44.38	809.0
44.39	810.0
44.4	803.0
44.41	811.0
44.42	796.0
44.43	809.0
44.44	816.0
44.45	815.0
44.46	786.0
44.47	787.0
44.48	815.0
44.49	815.0
44.5	781.0
44.51	806.0
44.52	789.0
44.53	801.0
44.54	820.0
44.55	820.0
44.56	807.0
44.57	790.0
44.58	791.0
44.59	790.0
44.6	792.0
44.61	801.0
44.62	790.0
44.63	793.0
44.64	781.0
44.65	788.0
44.66	784.0
44.67	810.0
44.68	790.0
44.69	792.0
44.7	797.0
44.71	787.0
44.72	790.0
44.73	781.0
44.74	806.0
44.75	799.0
44.76	810.0
44.77	796.0
44.78	776.0
44.79	778.0
44.8	756.0
44.81	763.0
44.82	762.0
44.83	779.0
44.84	782.0
44.85	764.0
44.86	778.0
44.87	792.0
44.88	794.0
44.89	802.0
44.9	804.0
44.91	768.0
44.92	804.0
44.93	791.0
44.94	749.0
44.95	751.0
44.96	747.0
44.97	769.0
44.98	761.0
44.99	797.0
45.0	830.0
45.01	813.0
45.02	787.0
45.03	774.0
45.04	768.0
45.05	791.0
45.06	784.0
45.07	780.0
45.08	768.0
45.09	752.0
45.1	772.0
45.11	772.0
45.12	756.0
45.13	761.0
45.14	773.0
45.15	768.0
45.16	761.0
45.17	755.0
45.18	770.0
45.19	777.0
45.2	776.0
45.21	798.0
45.22	824.0
45.23	827.0
45.24	814.0
45.25	794.0
45.26	783.0
45.27	767.0
45.28	751.0
45.29	786.0
45.3	768.0
45.31	760.0
45.32	742.0
45.33	767.0
45.34	782.0
45.35	752.0
45.36	765.0
45.37	784.0
45.38	774.0
45.39	784.0
45.4	777.0
45.41	772.0
45.42	769.0
45.43	784.0
45.44	781.0
45.45	777.0
45.46	769.0
45.47	752.0
45.48	748.0
45.49	783.0
45.5	794.0
45.51	798.0
45.52	775.0
45.53	772.0
45.54	745.0
45.55	772.0
45.56	766.0
45.57	763.0
45.58	745.0
45.59	773.0
45.6	792.0
45.61	794.0
45.62	775.0
45.63	767.0
45.64	800.0
45.65	817.0
45.66	821.0
45.67	785.0
45.68	743.0
45.69	737.0
45.7	782.0
45.71	778.0
45.72	736.0
45.73	733.0
45.74	753.0
45.75	749.0
45.76	784.0
45.77	775.0
45.78	763.0
45.79	768.0
45.8	774.0
45.81	785.0
45.82	817.0
45.83	803.0
45.84	791.0
45.85	783.0
45.86	771.0
45.87	763.0
45.88	765.0
45.89	769.0
45.9	758.0
45.91	745.0
45.92	774.0
45.93	795.0
45.94	787.0
45.95	770.0
45.96	777.0
45.97	783.0
45.98	783.0
45.99	753.0
46.0	769.0
46.01	766.0
46.02	767.0
46.03	780.0
46.04	789.0
46.05	787.0
46.06	767.0
46.07	795.0
46.08	825.0
46.09	805.0
46.1	761.0
46.11	765.0
46.12	773.0
46.13	777.0
46.14	780.0
46.15	772.0
46.16	779.0
46.17	799.0
46.18	805.0
46.19	791.0
46.2	763.0
46.21	764.0
46.22	764.0
46.23	734.0
46.24	760.0
46.25	766.0
46.26	760.0
46.27	771.0
46.28	792.0
46.29	800.0
46.3	776.0
46.31	768.0
46.32	756.0
46.33	756.0
46.34	755.0
46.35	754.0
46.36	774.0
46.37	779.0
46.38	789.0
46.39	809.0
46.4	807.0
46.41	784.0
46.42	764.0
46.43	744.0
46.44	740.0
46.45	743.0
46.46	743.0
46.47	752.0
46.48	759.0
46.49	784.0
46.5	805.0
46.51	780.0
46.52	772.0
46.53	787.0
46.54	788.0
46.55	767.0
46.56	760.0
46.57	763.0
46.58	760.0
46.59	781.0
46.6	777.0
46.61	754.0
46.62	763.0
46.63	741.0
46.64	747.0
46.65	743.0
46.66	752.0
46.67	777.0
46.68	803.0
46.69	790.0
46.7	779.0
46.71	765.0
46.72	768.0
46.73	764.0
46.74	750.0
46.75	775.0
46.76	781.0
46.77	791.0
46.78	786.0
46.79	766.0
46.8	763.0
46.81	774.0
46.82	773.0
46.83	781.0
46.84	772.0
46.85	771.0
46.86	772.0
46.87	772.0
46.88	769.0
46.89	760.0
46.9	759.0
46.91	762.0
46.92	765.0
46.93	780.0
46.94	780.0
46.95	774.0
46.96	773.0
46.97	784.0
46.98	820.0
46.99	815.0
47.0	787.0
47.01	787.0
47.02	785.0
47.03	804.0
47.04	822.0
47.05	805.0
47.06	786.0
47.07	800.0
47.08	836.0
47.09	853.0
47.1	862.0
47.11	855.0
47.12	848.0
47.13	870.0
47.14	898.0
47.15	907.0
47.16	925.0
47.17	917.0
47.18	918.0
47.19	938.0
47.2	951.0
47.21	929.0
47.22	930.0
47.23	956.0
47.24	976.0
47.25	976.0
47.26	967.0
47.27	929.0
47.28	922.0
47.29	924.0
47.3	896.0
47.31	891.0
47.32	901.0
47.33	895.0
47.34	925.0
47.35	937.0
47.36	906.0
47.37	910.0
47.38	920.0
47.39	916.0
47.4	891.0
47.41	882.0
47.42	885.0
47.43	873.0
47.44	856.0
47.45	873.0
47.46	847.0
47.47	831.0
47.48	812.0
47.49	819.0
47.5	844.0
47.51	855.0
47.52	841.0
47.53	805.0
47.54	814.0
47.55	849.0
47.56	852.0
47.57	839.0
47.58	816.0
47.59	817.0
47.6	835.0
47.61	817.0
47.62	836.0
47.63	839.0
47.64	823.0
47.65	810.0
47.66	811.0
47.67	801.0
47.68	798.0
47.69	788.0
47.7	788.0
47.71	791.0
47.72	777.0
47.73	784.0
47.74	791.0
47.75	799.0
47.76	798.0
47.77	798.0
47.78	784.0
47.79	784.0
47.8	796.0
47.81	793.0
47.82	785.0
47.83	802.0
47.84	814.0
47.85	782.0
47.86	772.0
47.87	789.0
47.88	807.0
47.89	783.0
47.9	781.0
47.91	794.0
47.92	814.0
47.93	821.0
47.94	795.0
47.95	792.0
47.96	795.0
47.97	786.0
47.98	802.0
47.99	802.0
48.0	805.0
48.01	794.0
48.02	798.0
48.03	807.0
48.04	827.0
48.05	825.0
48.06	793.0
48.07	786.0
48.08	787.0
48.09	764.0
48.1	775.0
48.11	777.0
48.12	763.0
48.13	798.0
48.14	811.0
48.15	787.0
48.16	779.0
48.17	771.0
48.18	750.0
48.19	765.0
48.2	786.0
48.21	773.0
48.22	765.0
48.23	778.0
48.24	787.0
48.25	780.0
48.26	770.0
48.27	772.0
48.28	784.0
48.29	765.0
48.3	767.0
48.31	800.0
48.32	801.0
48.33	779.0
48.34	769.0
48.35	740.0
48.36	732.0
48.37	749.0
48.38	779.0
48.39	809.0
48.4	802.0
48.41	787.0
48.42	794.0
48.43	790.0
48.44	759.0
48.45	751.0
48.46	762.0
48.47	775.0
48.48	793.0
48.49	782.0
48.5	759.0
48.51	746.0
48.52	753.0
48.53	748.0
48.54	738.0
48.55	747.0
48.56	755.0
48.57	769.0
48.58	774.0
48.59	779.0
48.6	784.0
48.61	778.0
48.62	770.0
48.63	761.0
48.64	726.0
48.65	723.0
48.66	738.0
48.67	758.0
48.68	775.0
48.69	783.0
48.7	776.0
48.71	776.0
48.72	794.0
48.73	797.0
48.74	790.0
48.75	773.0
48.76	747.0
48.77	742.0
48.78	745.0
48.79	740.0
48.8	756.0
48.81	779.0
48.82	778.0
48.83	773.0
48.84	771.0
48.85	753.0
48.86	754.0
48.87	744.0
48.88	757.0
48.89	777.0
48.9	760.0
48.91	756.0
48.92	747.0
48.93	738.0
48.94	746.0
48.95	775.0
48.96	773.0
48.97	752.0
48.98	751.0
48.99	772.0
49.0	766.0
49.01	741.0
49.02	744.0
49.03	758.0
49.04	752.0
49.05	744.0
49.06	741.0
49.07	739.0
49.08	744.0
49.09	751.0
49.1	755.0
49.11	771.0
49.12	778.0
49.13	757.0
49.14	747.0
49.15	755.0
49.16	781.0
49.17	791.0
49.18	765.0
49.19	755.0
49.2	762.0
49.21	771.0
49.22	770.0
49.23	765.0
49.24	771.0
49.25	792.0
49.26	785.0
49.27	774.0
49.28	769.0
49.29	767.0
49.3	774.0
49.31	771.0
49.32	765.0
49.33	761.0
49.34	762.0
49.35	765.0
49.36	763.0
49.37	761.0
49.38	749.0
49.39	762.0
49.4	769.0
49.41	754.0
49.42	749.0
49.43	767.0
49.44	780.0
49.45	761.0
49.46	749.0
49.47	755.0
49.48	753.0
49.49	766.0
49.5	764.0
49.51	768.0
49.52	785.0
49.53	791.0
49.54	783.0
49.55	772.0
49.56	775.0
49.57	780.0
49.58	757.0
49.59	749.0
49.6	764.0
49.61	758.0
49.62	737.0
49.63	742.0
49.64	763.0
49.65	762.0
49.66	754.0
49.67	761.0
49.68	772.0
49.69	776.0
49.7	767.0
49.71	766.0
49.72	764.0
49.73	761.0
49.74	775.0
49.75	787.0
49.76	794.0
49.77	802.0
49.78	794.0
49.79	758.0
49.8	754.0
49.81	761.0
49.82	762.0
49.83	781.0
49.84	775.0
49.85	766.0
49.86	769.0
49.87	777.0
49.88	781.0
49.89	782.0
49.9	775.0
49.91	766.0
49.92	754.0
49.93	757.0
49.94	771.0
49.95	765.0
49.96	759.0
49.97	766.0
49.98	771.0
49.99	774.0
50.0	763.0
50.01	753.0
50.02	757.0
50.03	755.0
50.04	750.0
50.05	748.0
50.06	743.0
50.07	754.0
50.08	775.0
50.09	772.0
50.1	758.0
50.11	778.0
50.12	792.0
50.13	761.0
50.14	738.0
50.15	735.0
50.16	743.0
50.17	765.0
50.18	773.0
50.19	760.0
50.2	772.0
50.21	740.0
50.22	727.0
50.23	737.0
50.24	717.0
50.25	722.0
50.26	734.0
50.27	746.0
50.28	759.0
50.29	763.0
50.3	756.0
50.31	758.0
50.32	763.0
50.33	764.0
50.34	785.0
50.35	788.0
50.36	786.0
50.37	764.0
50.38	742.0
50.39	777.0
50.4	789.0
50.41	750.0
50.42	731.0
50.43	750.0
50.44	761.0
50.45	758.0
50.46	772.0
50.47	775.0
50.48	750.0
50.49	758.0
50.5	776.0
50.51	758.0
50.52	748.0
50.53	746.0
50.54	732.0
50.55	753.0
50.56	779.0
50.57	761.0
50.58	736.0
50.59	742.0
50.6	770.0
50.61	752.0
50.62	731.0
50.63	747.0
50.64	774.0
50.65	776.0
50.66	752.0
50.67	754.0
50.68	745.0
50.69	735.0
50.7	758.0
50.71	772.0
50.72	769.0
50.73	755.0
50.74	745.0
50.75	745.0
50.76	723.0
50.77	713.0
50.78	738.0
50.79	763.0
50.8	756.0
50.81	759.0
50.82	764.0
50.83	756.0
50.84	754.0
50.85	742.0
50.86	745.0
50.87	740.0
50.88	730.0
50.89	740.0
50.9	755.0
50.91	750.0
50.92	739.0
50.93	745.0
50.94	752.0
50.95	741.0
50.96	737.0
50.97	763.0
50.98	768.0
50.99	739.0
51.0	716.0
51.01	744.0
51.02	773.0
51.03	772.0
51.04	761.0
51.05	744.0
51.06	748.0
51.07	742.0
51.08	746.0
51.09	767.0
51.1	750.0
51.11	728.0
51.12	753.0
51.13	764.0
51.14	758.0
51.15	764.0
51.16	764.0
51.17	767.0
51.18	782.0
51.19	761.0
51.2	730.0
51.21	724.0
51.22	733.0
51.23	751.0
51.24	754.0
51.25	762.0
51.26	757.0
51.27	761.0
51.28	770.0
51.29	780.0
51.3	809.0
51.31	797.0
51.32	752.0
51.33	737.0
51.34	769.0
51.35	783.0
51.36	766.0
51.37	759.0
51.38	757.0
51.39	749.0
51.4	730.0
51.41	720.0
51.42	743.0
51.43	779.0
51.44	793.0
51.45	772.0
51.46	758.0
51.47	769.0
51.48	780.0
51.49	760.0
51.5	747.0
51.51	758.0
51.52	766.0
51.53	764.0
51.54	768.0
51.55	765.0
51.56	731.0
51.57	728.0
51.58	756.0
51.59	757.0
51.6	735.0
51.61	734.0
51.62	753.0
51.63	762.0
51.64	757.0
51.65	751.0
51.66	762.0
51.67	757.0
51.68	754.0
51.69	769.0
51.7	754.0
51.71	719.0
51.72	723.0
51.73	742.0
51.74	734.0
51.75	753.0
51.76	766.0
51.77	762.0
51.78	749.0
51.79	745.0
51.8	750.0
51.81	742.0
51.82	735.0
51.83	719.0
51.84	716.0
51.85	746.0
51.86	746.0
51.87	741.0
51.88	760.0
51.89	751.0
51.9	745.0
51.91	753.0
51.92	742.0
51.93	734.0
51.94	735.0
51.95	733.0
51.96	752.0
51.97	769.0
51.98	762.0
51.99	754.0
52.0	746.0
52.01	727.0
52.02	722.0
52.03	731.0
52.04	733.0
52.05	749.0
52.06	762.0
52.07	774.0
52.08	771.0
52.09	751.0
52.1	754.0
52.11	765.0
52.12	759.0
52.13	748.0
52.14	750.0
52.15	759.0
52.16	747.0
52.17	748.0
52.18	784.0
52.19	785.0
52.2	767.0
52.21	766.0
52.22	773.0
52.23	779.0
52.24	773.0
52.25	773.0
52.26	775.0
52.27	768.0
52.28	747.0
52.29	759.0
52.3	772.0
52.31	765.0
52.32	758.0
52.33	761.0
52.34	750.0
52.35	712.0
52.36	706.0
52.37	728.0
52.38	748.0
52.39	741.0
52.4	749.0
52.41	764.0
52.42	763.0
52.43	765.0
52.44	777.0
52.45	775.0
52.46	771.0
52.47	787.0
52.48	777.0
52.49	741.0
52.5	741.0
52.51	769.0
52.52	776.0
52.53	753.0
52.54	728.0
52.55	733.0
52.56	750.0
52.57	743.0
52.58	752.0
52.59	756.0
52.6	739.0
52.61	729.0
52.62	737.0
52.63	752.0
52.64	743.0
52.65	735.0
52.66	745.0
52.67	746.0
52.68	740.0
52.69	736.0
52.7	735.0
52.71	740.0
52.72	717.0
52.73	718.0
52.74	748.0
52.75	748.0
52.76	732.0
52.77	714.0
52.78	727.0
52.79	742.0
52.8	758.0
52.81	759.0
52.82	749.0
52.83	741.0
52.84	736.0
52.85	737.0
52.86	743.0
52.87	748.0
52.88	749.0
52.89	740.0
52.9	735.0
52.91	736.0
52.92	728.0
52.93	745.0
52.94	767.0
52.95	767.0
52.96	766.0
52.97	773.0
52.98	775.0
52.99	763.0
53.0	761.0
53.01	769.0
53.02	765.0
53.03	746.0
53.04	730.0
53.05	732.0
53.06	747.0
53.07	767.0
53.08	765.0
53.09	767.0
53.1	779.0
53.11	786.0
53.12	780.0
53.13	783.0
53.14	787.0
53.15	774.0
53.16	771.0
53.17	783.0
53.18	778.0
53.19	761.0
53.2	769.0
53.21	807.0
53.22	807.0
53.23	775.0
53.24	778.0
53.25	784.0
53.26	787.0
53.27	780.0
53.28	759.0
53.29	795.0
53.3	829.0
53.31	832.0
53.32	846.0
53.33	844.0
53.34	850.0
53.35	889.0
53.36	900.0
53.37	887.0
53.38	890.0
53.39	904.0
53.4	912.0
53.41	908.0
53.42	925.0
53.43	942.0
53.44	948.0
53.45	940.0
53.46	928.0
53.47	928.0
53.48	939.0
53.49	947.0
53.5	971.0
53.51	975.0
53.52	949.0
53.53	942.0
53.54	952.0
53.55	951.0
53.56	956.0
53.57	952.0
53.58	923.0
53.59	893.0
53.6	902.0
53.61	892.0
53.62	887.0
53.63	885.0
53.64	870.0
53.65	869.0
53.66	866.0
53.67	854.0
53.68	837.0
53.69	857.0
53.7	882.0
53.71	850.0
53.72	828.0
53.73	829.0
53.74	816.0
53.75	817.0
53.76	820.0
53.77	814.0
53.78	813.0
53.79	821.0
53.8	804.0
53.81	787.0
53.82	800.0
53.83	812.0
53.84	787.0
53.85	763.0
53.86	757.0
53.87	765.0
53.88	777.0
53.89	791.0
53.9	776.0
53.91	754.0
53.92	744.0
53.93	758.0
53.94	768.0
53.95	749.0
53.96	737.0
53.97	747.0
53.98	768.0
53.99	778.0
54.0	775.0
54.01	792.0
54.02	770.0
54.03	765.0
54.04	745.0
54.05	739.0
54.06	754.0
54.07	775.0
54.08	773.0
54.09	755.0
54.1	763.0
54.11	782.0
54.12	780.0
54.13	779.0
54.14	783.0
54.15	780.0
54.16	767.0
54.17	757.0
54.18	760.0
54.19	752.0
54.2	772.0
54.21	823.0
54.22	801.0
54.23	753.0
54.24	735.0
54.25	746.0
54.26	775.0
54.27	793.0
54.28	781.0
54.29	751.0
54.3	755.0
54.31	764.0
54.32	765.0
54.33	770.0
54.34	765.0
54.35	751.0
54.36	743.0
54.37	758.0
54.38	780.0
54.39	783.0
54.4	770.0
54.41	771.0
54.42	781.0
54.43	778.0
54.44	767.0
54.45	776.0
54.46	798.0
54.47	772.0
54.48	754.0
54.49	753.0
54.5	753.0
54.51	744.0
54.52	761.0
54.53	762.0
54.54	744.0
54.55	748.0
54.56	768.0
54.57	775.0
54.58	766.0
54.59	764.0
54.6	775.0
54.61	774.0
54.62	760.0
54.63	760.0
54.64	780.0
54.65	777.0
54.66	758.0
54.67	749.0
54.68	742.0
54.69	744.0
54.7	748.0
54.71	748.0
54.72	727.0
54.73	730.0
54.74	747.0
54.75	757.0
54.76	763.0
54.77	760.0
54.78	752.0
54.79	744.0
54.8	750.0
54.81	764.0
54.82	781.0
54.83	778.0
54.84	758.0
54.85	741.0
54.86	740.0
54.87	741.0
54.88	756.0
54.89	789.0
54.9	791.0
54.91	775.0
54.92	771.0
54.93	788.0
54.94	801.0
54.95	783.0
54.96	775.0
54.97	752.0
54.98	754.0
54.99	774.0
55.0	779.0
55.01	778.0
55.02	764.0
55.03	751.0
55.04	759.0
55.05	764.0
55.06	762.0
55.07	770.0
55.08	781.0
55.09	786.0
55.1	773.0
55.11	772.0
55.12	782.0
55.13	794.0
55.14	800.0
55.15	805.0
55.16	785.0
55.17	780.0
55.18	789.0
55.19	775.0
55.2	782.0
55.21	805.0
55.22	771.0
55.23	736.0
55.24	750.0
55.25	768.0
55.26	775.0
55.27	776.0
55.28	774.0
55.29	785.0
55.3	787.0
55.31	788.0
55.32	806.0
55.33	777.0
55.34	737.0
55.35	745.0
55.36	789.0
55.37	793.0
55.38	767.0
55.39	761.0
55.4	766.0
55.41	777.0
55.42	753.0
55.43	756.0
55.44	807.0
55.45	834.0
55.46	828.0
55.47	791.0
55.48	793.0
55.49	802.0
55.5	788.0
55.51	785.0
55.52	770.0
55.53	761.0
55.54	771.0
55.55	780.0
55.56	766.0
55.57	777.0
55.58	808.0
55.59	791.0
55.6	776.0
55.61	798.0
55.62	820.0
55.63	799.0
55.64	772.0
55.65	799.0
55.66	797.0
55.67	787.0
55.68	806.0
55.69	804.0
55.7	812.0
55.71	801.0
55.72	788.0
55.73	816.0
55.74	811.0
55.75	806.0
55.76	802.0
55.77	809.0
55.78	807.0
55.79	807.0
55.8	829.0
55.81	821.0
55.82	803.0
55.83	789.0
55.84	777.0
55.85	791.0
55.86	806.0
55.87	805.0
55.88	804.0
55.89	797.0
55.9	802.0
55.91	795.0
55.92	808.0
55.93	794.0
55.94	770.0
55.95	781.0
55.96	784.0
55.97	783.0
55.98	780.0
55.99	792.0
56.0	788.0
56.01	779.0
56.02	788.0
56.03	793.0
56.04	787.0
56.05	801.0
56.06	789.0
56.07	788.0
56.08	835.0
56.09	831.0
56.1	808.0
56.11	789.0
56.12	778.0
56.13	778.0
56.14	824.0
56.15	805.0
56.16	819.0
56.17	801.0
56.18	795.0
56.19	803.0
56.2	811.0
56.21	792.0
56.22	785.0
56.23	812.0
56.24	829.0
56.25	823.0
56.26	818.0
56.27	834.0
56.28	819.0
56.29	798.0
56.3	800.0
56.31	802.0
56.32	807.0
56.33	803.0
56.34	795.0
56.35	792.0
56.36	815.0
56.37	817.0
56.38	809.0
56.39	814.0
56.4	820.0
56.41	829.0
56.42	821.0
56.43	823.0
56.44	852.0
56.45	856.0
56.46	825.0
56.47	833.0
56.48	858.0
56.49	874.0
56.5	872.0
56.51	839.0
56.52	839.0
56.53	851.0
56.54	859.0
56.55	852.0
56.56	872.0
56.57	893.0
56.58	912.0
56.59	910.0
56.6	900.0
56.61	883.0
56.62	896.0
56.63	906.0
56.64	900.0
56.65	916.0
56.66	939.0
56.67	968.0
56.68	976.0
56.69	950.0
56.7	948.0
56.71	994.0
56.72	1027.0
56.73	1014.0
56.74	1022.0
56.75	1033.0
56.76	1061.0
56.77	1101.0
56.78	1120.0
56.79	1170.0
56.8	1255.0
56.81	1337.0
56.82	1415.0
56.83	1516.0
56.84	1595.0
56.85	1684.0
56.86	1786.0
56.87	1899.0
56.88	2012.0
56.89	2101.0
56.9	2212.0
56.91	2283.0
56.92	2336.0
56.93	2433.0
56.94	2507.0
56.95	2569.0
56.96	2606.0
56.97	2627.0
56.98	2729.0
56.99	2711.0
57.0	2740.0
57.01	2782.0
57.02	2748.0
57.03	2776.0
57.04	2856.0
57.05	2834.0
57.06	2764.0
57.07	2720.0
57.08	2716.0
57.09	2640.0
57.1	2593.0
57.11	2598.0
57.12	2513.0
57.13	2439.0
57.14	2339.0
57.15	2274.0
57.16	2241.0
57.17	2180.0
57.18	2075.0
57.19	2054.0
57.2	1983.0
57.21	1925.0
57.22	1810.0
57.23	1726.0
57.24	1696.0
57.25	1682.0
57.26	1595.0
57.27	1539.0
57.28	1506.0
57.29	1456.0
57.3	1432.0
57.31	1394.0
57.32	1331.0
57.33	1283.0
57.34	1270.0
57.35	1262.0
57.36	1285.0
57.37	1229.0
57.38	1184.0
57.39	1165.0
57.4	1164.0
57.41	1121.0
57.42	1089.0
57.43	1092.0
57.44	1071.0
57.45	1054.0
57.46	1048.0
57.47	1051.0
57.48	1033.0
57.49	1042.0
57.5	1037.0
57.51	1038.0
57.52	1036.0
57.53	997.0
57.54	955.0
57.55	961.0
57.56	980.0
57.57	1010.0
57.58	990.0
57.59	990.0
57.6	960.0
57.61	945.0
57.62	927.0
57.63	937.0
57.64	971.0
57.65	963.0
57.66	947.0
57.67	921.0
57.68	901.0
57.69	908.0
57.7	912.0
57.71	886.0
57.72	891.0
57.73	904.0
57.74	900.0
57.75	894.0
57.76	906.0
57.77	929.0
57.78	912.0
57.79	907.0
57.8	931.0
57.81	920.0
57.82	894.0
57.83	869.0
57.84	877.0
57.85	878.0
57.86	891.0
57.87	902.0
57.88	930.0
57.89	889.0
57.9	862.0
57.91	863.0
57.92	870.0
57.93	892.0
57.94	883.0
57.95	849.0
57.96	836.0
57.97	847.0
57.98	847.0
57.99	839.0
58.0	836.0
58.01	825.0
58.02	866.0
58.03	879.0
58.04	864.0
58.05	844.0
58.06	843.0
58.07	843.0
58.08	861.0
58.09	846.0
58.1	829.0
58.11	819.0
58.12	830.0
58.13	831.0
58.14	829.0
58.15	841.0
58.16	830.0
58.17	804.0
58.18	798.0
58.19	807.0
58.2	802.0
58.21	799.0
58.22	827.0
58.23	859.0
58.24	823.0
58.25	802.0
58.26	819.0
58.27	789.0
58.28	800.0
58.29	799.0
58.3	786.0
58.31	788.0
58.32	782.0
58.33	788.0
58.34	802.0
58.35	818.0
58.36	819.0
58.37	817.0
58.38	817.0
58.39	799.0
58.4	802.0
58.41	813.0
58.42	813.0
58.43	811.0
58.44	802.0
58.45	793.0
58.46	763.0
58.47	736.0
58.48	750.0
58.49	762.0
58.5	766.0
58.51	758.0
58.52	763.0
58.53	778.0
58.54	778.0
58.55	791.0
58.56	803.0
58.57	783.0
58.58	785.0
58.59	794.0
58.6	800.0
58.61	829.0
58.62	805.0
58.63	787.0
58.64	804.0
58.65	812.0
58.66	792.0
58.67	766.0
58.68	781.0
58.69	803.0
58.7	793.0
58.71	777.0
58.72	772.0
58.73	785.0
58.74	795.0
58.75	774.0
58.76	760.0
58.77	780.0
58.78	798.0
58.79	782.0
58.8	793.0
58.81	802.0
58.82	787.0
58.83	795.0
58.84	818.0
58.85	817.0
58.86	805.0
58.87	786.0
58.88	797.0
58.89	800.0
58.9	802.0
58.91	779.0
58.92	775.0
58.93	782.0
58.94	779.0
58.95	786.0
58.96	792.0
58.97	798.0
58.98	773.0
58.99	756.0
59.0	742.0
59.01	759.0
59.02	794.0
59.03	802.0
59.04	796.0
59.05	754.0
59.06	765.0
59.07	811.0
59.08	825.0
59.09	791.0
59.1	740.0
59.11	757.0
59.12	789.0
59.13	801.0
59.14	800.0
59.15	765.0
59.16	750.0
59.17	764.0
59.18	786.0
59.19	800.0
59.2	780.0
59.21	815.0
59.22	822.0
59.23	766.0
59.24	748.0
59.25	778.0
59.26	790.0
59.27	791.0
59.28	767.0
59.29	804.0
59.3	826.0
59.31	812.0
59.32	812.0
59.33	791.0
59.34	785.0
59.35	797.0
59.36	768.0
59.37	784.0
59.38	775.0
59.39	769.0
59.4	791.0
59.41	779.0
59.42	772.0
59.43	809.0
59.44	811.0
59.45	807.0
59.46	819.0
59.47	797.0
59.48	789.0
59.49	779.0
59.5	767.0
59.51	781.0
59.52	785.0
59.53	759.0
59.54	779.0
59.55	790.0
59.56	782.0
59.57	784.0
59.58	788.0
59.59	780.0
59.6	774.0
59.61	790.0
59.62	784.0
59.63	758.0
59.64	774.0
59.65	767.0
59.66	759.0
59.67	744.0
59.68	768.0
59.69	774.0
59.7	761.0
59.71	780.0
59.72	775.0
59.73	787.0
59.74	776.0
59.75	769.0
59.76	753.0
59.77	754.0
59.78	768.0
59.79	789.0
59.8	783.0
59.81	803.0
59.82	797.0
59.83	788.0
59.84	779.0
59.85	795.0
59.86	795.0
59.87	764.0
59.88	731.0
59.89	746.0
59.9	797.0
59.91	785.0
59.92	783.0
59.93	754.0
59.94	754.0
59.95	777.0
59.96	781.0
59.97	783.0
59.98	786.0
59.99	802.0
60.0	791.0
60.01	775.0
60.02	770.0
60.03	775.0
60.04	787.0
60.05	803.0
60.06	799.0
60.07	761.0
60.08	748.0
60.09	764.0
60.1	766.0
60.11	769.0
60.12	821.0
60.13	808.0
60.14	807.0
60.15	805.0
60.16	778.0
60.17	779.0
60.18	765.0
60.19	768.0
60.2	773.0
60.21	772.0
60.22	789.0
60.23	758.0
60.24	760.0
60.25	755.0
60.26	774.0
60.27	797.0
60.28	832.0
60.29	837.0
60.3	830.0
60.31	835.0
60.32	785.0
60.33	782.0
60.34	798.0
60.35	824.0
60.36	838.0
60.37	810.0
60.38	807.0
60.39	810.0
60.4	816.0
60.41	800.0
60.42	803.0
60.43	796.0
60.44	781.0
60.45	783.0
60.46	797.0
60.47	791.0
60.48	820.0
60.49	812.0
60.5	795.0
60.51	781.0
60.52	793.0
60.53	767.0
60.54	777.0
60.55	833.0
60.56	823.0
60.57	782.0
60.58	808.0
60.59	784.0
60.6	785.0
60.61	794.0
60.62	830.0
60.63	793.0
60.64	794.0
60.65	811.0
60.66	786.0
60.67	794.0
60.68	785.0
60.69	775.0
60.7	785.0
60.71	775.0
60.72	788.0
60.73	800.0
60.74	791.0
60.75	777.0
60.76	779.0
60.77	785.0
60.78	778.0
60.79	797.0
60.8	818.0
60.81	785.0
60.82	794.0
60.83	808.0
60.84	799.0
60.85	786.0
60.86	784.0
60.87	766.0
60.88	763.0
60.89	797.0
60.9	823.0
60.91	804.0
60.92	791.0
60.93	771.0
60.94	763.0
60.95	753.0
60.96	768.0
60.97	779.0
60.98	825.0
60.99	794.0
61.0	750.0
61.01	794.0
61.02	779.0
61.03	777.0
61.04	793.0
61.05	823.0
61.06	822.0
61.07	795.0
61.08	788.0
61.09	809.0
61.1	777.0
61.11	763.0
61.12	762.0
61.13	763.0
61.14	783.0
61.15	818.0
61.16	802.0
61.17	804.0
61.18	794.0
61.19	810.0
61.2	789.0
61.21	802.0
61.22	808.0
61.23	806.0
61.24	796.0
61.25	820.0
61.26	807.0
61.27	793.0
61.28	824.0
61.29	829.0
61.3	832.0
61.31	799.0
61.32	800.0
61.33	813.0
61.34	799.0
61.35	813.0
61.36	834.0
61.37	783.0
61.38	814.0
61.39	807.0
61.4	800.0
61.41	793.0
61.42	769.0
61.43	789.0
61.44	790.0
61.45	814.0
61.46	799.0
61.47	802.0
61.48	792.0
61.49	776.0
61.5	788.0
61.51	779.0
61.52	788.0
61.53	827.0
61.54	820.0
61.55	827.0
61.56	842.0
61.57	807.0
61.58	788.0
61.59	788.0
61.6	769.0
61.61	781.0
61.62	793.0
61.63	808.0
61.64	834.0
61.65	796.0
61.66	778.0
61.67	773.0
61.68	793.0
61.69	820.0
61.7	836.0
61.71	829.0
61.72	845.0
61.73	829.0
61.74	793.0
61.75	783.0
61.76	790.0
61.77	802.0
61.78	822.0
61.79	819.0
61.8	777.0
61.81	786.0
61.82	805.0
61.83	772.0
61.84	802.0
61.85	829.0
61.86	823.0
61.87	817.0
61.88	847.0
61.89	852.0
61.9	849.0
61.91	821.0
61.92	839.0
61.93	841.0
61.94	825.0
61.95	814.0
61.96	831.0
61.97	833.0
61.98	842.0
61.99	874.0
62.0	844.0
62.01	853.0
62.02	897.0
62.03	885.0
62.04	877.0
62.05	879.0
62.06	850.0
62.07	897.0
62.08	876.0
62.09	875.0
62.1	881.0
62.11	901.0
62.12	911.0
62.13	883.0
62.14	870.0
62.15	901.0
62.16	921.0
62.17	917.0
62.18	948.0
62.19	966.0
62.2	981.0
62.21	968.0
62.22	939.0
62.23	949.0
62.24	963.0
62.25	974.0
62.26	1007.0
62.27	1066.0
62.28	1077.0
62.29	1072.0
62.3	1076.0
62.31	1084.0
62.32	1122.0
62.33	1192.0
62.34	1255.0
62.35	1283.0
62.36	1291.0
62.37	1378.0
62.38	1490.0
62.39	1511.0
62.4	1614.0
62.41	1791.0
62.42	1963.0
62.43	2146.0
62.44	2275.0
62.45	2415.0
62.46	2540.0
62.47	2685.0
62.48	2760.0
62.49	2916.0
62.5	3044.0
62.51	3114.0
62.52	3216.0
62.53	3258.0
62.54	3295.0
62.55	3400.0
62.56	3551.0
62.57	3677.0
62.58	3689.0
62.59	3672.0
62.6	3706.0
62.61	3742.0
62.62	3673.0
62.63	3697.0
62.64	3727.0
62.65	3753.0
62.66	3707.0
62.67	3601.0
62.68	3582.0
62.69	3555.0
62.7	3507.0
62.71	3337.0
62.72	3300.0
62.73	3143.0
62.74	3069.0
62.75	2976.0
62.76	2914.0
62.77	2832.0
62.78	2805.0
62.79	2754.0
62.8	2664.0
62.81	2579.0
62.82	2462.0
62.83	2374.0
62.84	2310.0
62.85	2245.0
62.86	2190.0
62.87	2091.0
62.88	1999.0
62.89	1974.0
62.9	1863.0
62.91	1781.0
62.92	1767.0
62.93	1709.0
62.94	1668.0
62.95	1554.0
62.96	1457.0
62.97	1433.0
62.98	1417.0
62.99	1433.0
63.0	1440.0
63.01	1394.0
63.02	1373.0
63.03	1354.0
63.04	1309.0
63.05	1301.0
63.06	1254.0
63.07	1230.0
63.08	1246.0
63.09	1234.0
63.1	1226.0
63.11	1170.0
63.12	1194.0
63.13	1175.0
63.14	1163.0
63.15	1141.0
63.16	1138.0
63.17	1103.0
63.18	1094.0
63.19	1082.0
63.2	1080.0
63.21	1090.0
63.22	1108.0
63.23	1081.0
63.24	1069.0
63.25	1034.0
63.26	1009.0
63.27	994.0
63.28	1014.0
63.29	1010.0
63.3	1011.0
63.31	1016.0
63.32	1011.0
63.33	1020.0
63.34	961.0
63.35	969.0
63.36	970.0
63.37	1002.0
63.38	1026.0
63.39	999.0
63.4	991.0
63.41	983.0
63.42	977.0
63.43	953.0
63.44	965.0
63.45	1000.0
63.46	990.0
63.47	961.0
63.48	987.0
63.49	986.0
63.5	966.0
63.51	926.0
63.52	946.0
63.53	898.0
63.54	910.0
63.55	894.0
63.56	901.0
63.57	907.0
63.58	918.0
63.59	906.0
63.6	884.0
63.61	907.0
63.62	894.0
63.63	917.0
63.64	915.0
63.65	896.0
63.66	922.0
63.67	919.0
63.68	900.0
63.69	868.0
63.7	874.0
63.71	840.0
63.72	864.0
63.73	880.0
63.74	850.0
63.75	873.0
63.76	887.0
63.77	887.0
63.78	885.0
63.79	856.0
63.8	865.0
63.81	868.0
63.82	880.0
63.83	889.0
63.84	845.0
63.85	859.0
63.86	893.0
63.87	865.0
63.88	874.0
63.89	868.0
63.9	899.0
63.91	898.0
63.92	866.0
63.93	803.0
63.94	838.0
63.95	846.0
63.96	851.0
63.97	812.0
63.98	847.0
63.99	874.0
64.0	835.0
64.01	835.0
64.02	857.0
64.03	854.0
64.04	841.0
64.05	856.0
64.06	844.0
64.07	813.0
64.08	805.0
64.09	820.0
64.1	817.0
64.11	808.0
64.12	820.0
64.13	836.0
64.14	823.0
64.15	794.0
64.16	780.0
64.17	819.0
64.18	816.0
64.19	805.0
64.2	843.0
64.21	800.0
64.22	823.0
64.23	811.0
64.24	771.0
64.25	784.0
64.26	794.0
64.27	779.0
64.28	790.0
64.29	771.0
64.3	781.0
64.31	782.0
64.32	763.0
64.33	774.0
64.34	779.0
64.35	779.0
64.36	753.0
64.37	773.0
64.38	776.0
64.39	769.0
64.4	734.0
64.41	814.0
64.42	783.0
64.43	752.0
64.44	764.0
64.45	742.0
64.46	753.0
64.47	785.0
64.48	762.0
64.49	746.0
64.5	751.0
64.51	758.0
64.52	762.0
64.53	776.0
64.54	764.0
64.55	733.0
64.56	726.0
64.57	731.0
64.58	731.0
64.59	767.0
64.6	774.0
64.61	774.0
64.62	769.0
64.63	796.0
64.64	755.0
64.65	754.0
64.66	755.0
64.67	755.0
64.68	766.0
64.69	771.0
64.7	774.0
64.71	769.0
64.72	777.0
64.73	741.0
64.74	721.0
64.75	749.0
64.76	776.0
64.77	752.0
64.78	751.0
64.79	744.0
64.8	744.0
64.81	799.0
64.82	811.0
64.83	783.0
64.84	816.0
64.85	755.0
64.86	771.0
64.87	768.0
64.88	784.0
64.89	790.0
64.9	766.0
64.91	769.0
64.92	762.0
64.93	761.0
64.94	784.0
64.95	769.0
64.96	786.0
64.97	771.0
64.98	761.0
64.99	748.0
65.0	778.0
65.01	797.0
65.02	763.0
65.03	742.0
65.04	741.0
65.05	790.0
65.06	835.0
65.07	768.0
65.08	751.0
65.09	737.0
65.1	735.0
65.11	764.0
65.12	782.0
65.13	818.0
65.14	796.0
65.15	775.0
65.16	766.0
65.17	756.0
65.18	763.0
65.19	747.0
65.2	748.0
65.21	730.0
65.22	766.0
65.23	771.0
65.24	765.0
65.25	772.0
65.26	749.0
65.27	756.0
65.28	756.0
65.29	762.0
65.3	760.0
65.31	754.0
65.32	765.0
65.33	811.0
65.34	773.0
65.35	754.0
65.36	774.0
65.37	775.0
65.38	762.0
65.39	736.0
65.4	738.0
65.41	741.0
65.42	766.0
65.43	785.0
65.44	790.0
65.45	785.0
65.46	784.0
65.47	790.0
65.48	821.0
65.49	838.0
65.5	794.0
65.51	792.0
65.52	820.0
65.53	827.0
65.54	831.0
65.55	828.0
65.56	864.0
65.57	819.0
65.58	820.0
65.59	899.0
65.6	907.0
65.61	883.0
65.62	892.0
65.63	931.0
65.64	906.0
65.65	964.0
65.66	1024.0
65.67	988.0
65.68	991.0
65.69	1005.0
65.7	1041.0
65.71	1093.0
65.72	1114.0
65.73	1068.0
65.74	1042.0
65.75	1121.0
65.76	1151.0
65.77	1135.0
65.78	1168.0
65.79	1220.0
65.8	1238.0
65.81	1227.0
65.82	1178.0
65.83	1130.0
65.84	1228.0
65.85	1184.0
65.86	1195.0
65.87	1194.0
65.88	1239.0
65.89	1280.0
65.9	1186.0
65.91	1206.0
65.92	1236.0
65.93	1238.0
65.94	1194.0
65.95	1176.0
65.96	1183.0
65.97	1172.0
65.98	1160.0
65.99	1166.0
66.0	1118.0
66.01	1117.0
66.02	1108.0
66.03	1106.0
66.04	1085.0
66.05	1066.0
66.06	1065.0
66.07	1066.0
66.08	1046.0
66.09	1047.0
66.1	1045.0
66.11	1016.0
66.12	1015.0
66.13	965.0
66.14	973.0
66.15	962.0
66.16	929.0
66.17	945.0
66.18	920.0
66.19	895.0
66.2	909.0
66.21	924.0
66.22	877.0
66.23	872.0
66.24	875.0
66.25	869.0
66.26	861.0
66.27	862.0
66.28	827.0
66.29	844.0
66.3	804.0
66.31	814.0
66.32	840.0
66.33	797.0
66.34	813.0
66.35	848.0
66.36	816.0
66.37	832.0
66.38	847.0
66.39	831.0
66.4	821.0
66.41	825.0
66.42	852.0
66.43	815.0
66.44	781.0
66.45	798.0
66.46	769.0
66.47	784.0
66.48	802.0
66.49	830.0
66.5	818.0
66.51	807.0
66.52	777.0
66.53	788.0
66.54	808.0
66.55	789.0
66.56	802.0
66.57	830.0
66.58	803.0
66.59	828.0
66.6	799.0
66.61	805.0
66.62	799.0
66.63	803.0
66.64	803.0
66.65	792.0
66.66	767.0
66.67	757.0
66.68	763.0
66.69	798.0
66.7	776.0
66.71	775.0
66.72	794.0
66.73	818.0
66.74	804.0
66.75	782.0
66.76	788.0
66.77	792.0
66.78	770.0
66.79	788.0
66.8	782.0
66.81	799.0
66.82	821.0
66.83	777.0
66.84	774.0
66.85	788.0
66.86	809.0
66.87	803.0
66.88	798.0
66.89	783.0
66.9	786.0
66.91	805.0
66.92	820.0
66.93	779.0
66.94	755.0
66.95	729.0
66.96	764.0
66.97	772.0
66.98	745.0
66.99	774.0
67.0	792.0
67.01	786.0
67.02	768.0
67.03	757.0
67.04	801.0
67.05	786.0
67.06	762.0
67.07	782.0
67.08	764.0
67.09	771.0
67.1	771.0
67.11	754.0
67.12	800.0
67.13	767.0
67.14	743.0
67.15	795.0
67.16	791.0
67.17	773.0
67.18	769.0
67.19	793.0
67.2	774.0
67.21	790.0
67.22	797.0
67.23	783.0
67.24	776.0
67.25	782.0
67.26	767.0
67.27	772.0
67.28	775.0
67.29	776.0
67.3	781.0
67.31	758.0
67.32	742.0
67.33	789.0
67.34	789.0
67.35	778.0
67.36	794.0
67.37	746.0
67.38	763.0
67.39	770.0
67.4	721.0
67.41	740.0
67.42	774.0
67.43	756.0
67.44	719.0
67.45	734.0
67.46	756.0
67.47	726.0
67.48	738.0
67.49	743.0
67.5	746.0
67.51	740.0
67.52	745.0
67.53	777.0
67.54	770.0
67.55	749.0
67.56	739.0
67.57	739.0
67.58	752.0
67.59	759.0
67.6	738.0
67.61	722.0
67.62	748.0
67.63	762.0
67.64	733.0
67.65	768.0
67.66	748.0
67.67	720.0
67.68	739.0
67.69	736.0
67.7	751.0
67.71	737.0
67.72	739.0
67.73	765.0
67.74	731.0
67.75	734.0
67.76	757.0
67.77	753.0
67.78	740.0
67.79	750.0
67.8	723.0
67.81	735.0
67.82	741.0
67.83	723.0
67.84	696.0
67.85	727.0
67.86	713.0
67.87	724.0
67.88	757.0
67.89	765.0
67.9	746.0
67.91	742.0
67.92	755.0
67.93	758.0
67.94	727.0
67.95	727.0
67.96	736.0
67.97	745.0
67.98	743.0
67.99	732.0
68.0	733.0
68.01	751.0
68.02	732.0
68.03	764.0
68.04	760.0
68.05	714.0
68.06	726.0
68.07	740.0
68.08	764.0
68.09	721.0
68.1	729.0
68.11	738.0
68.12	715.0
68.13	719.0
68.14	744.0
68.15	746.0
68.16	778.0
68.17	777.0
68.18	721.0
68.19	728.0
68.2	749.0
68.21	746.0
68.22	729.0
68.23	713.0
68.24	745.0
68.25	757.0
68.26	770.0
68.27	760.0
68.28	729.0
68.29	711.0
68.3	729.0
68.31	740.0
68.32	732.0
68.33	717.0
68.34	706.0
68.35	722.0
68.36	737.0
68.37	773.0
68.38	773.0
68.39	748.0
68.4	719.0
68.41	741.0
68.42	727.0
68.43	738.0
68.44	773.0
68.45	742.0
68.46	749.0
68.47	740.0
68.48	745.0
68.49	723.0
68.5	738.0
68.51	753.0
68.52	763.0
68.53	700.0
68.54	722.0
68.55	745.0
68.56	765.0
68.57	748.0
68.58	731.0
68.59	724.0
68.6	740.0
68.61	746.0
68.62	702.0
68.63	727.0
68.64	733.0
68.65	726.0
68.66	724.0
68.67	733.0
68.68	741.0
68.69	732.0
68.7	756.0
68.71	748.0
68.72	728.0
68.73	722.0
68.74	711.0
68.75	732.0
68.76	769.0
68.77	725.0
68.78	726.0
68.79	755.0
68.8	721.0
68.81	737.0
68.82	743.0
68.83	738.0
68.84	745.0
68.85	725.0
68.86	734.0
68.87	741.0
68.88	737.0
68.89	742.0
68.9	765.0
68.91	744.0
68.92	753.0
68.93	762.0
68.94	744.0
68.95	735.0
68.96	739.0
68.97	743.0
68.98	715.0
68.99	712.0
69.0	732.0
69.01	741.0
69.02	778.0
69.03	751.0
69.04	742.0
69.05	752.0
69.06	726.0
69.07	737.0
69.08	758.0
69.09	748.0
69.1	737.0
69.11	705.0
69.12	734.0
69.13	730.0
69.14	734.0
69.15	731.0
69.16	741.0
69.17	738.0
69.18	741.0
69.19	749.0
69.2	756.0
69.21	773.0
69.22	740.0
69.23	713.0
69.24	705.0
69.25	764.0
69.26	738.0
69.27	730.0
69.28	711.0
69.29	716.0
69.3	717.0
69.31	710.0
69.32	733.0
69.33	742.0
69.34	742.0
69.35	729.0
69.36	722.0
69.37	756.0
69.38	761.0
69.39	720.0
69.4	724.0
69.41	727.0
69.42	742.0
69.43	746.0
69.44	739.0
69.45	744.0
69.46	719.0
69.47	709.0
69.48	751.0
69.49	755.0
69.5	731.0
69.51	722.0
69.52	725.0
69.53	725.0
69.54	695.0
69.55	708.0
69.56	709.0
69.57	706.0
69.58	753.0
69.59	764.0
69.6	749.0
69.61	753.0
69.62	709.0
69.63	713.0
69.64	723.0
69.65	705.0
69.66	744.0
69.67	726.0
69.68	709.0
69.69	724.0
69.7	737.0
69.71	719.0
69.72	718.0
69.73	738.0
69.74	746.0
69.75	732.0
69.76	737.0
69.77	745.0
69.78	738.0
69.79	744.0
69.8	725.0
69.81	726.0
69.82	742.0
69.83	724.0
69.84	728.0
69.85	741.0
69.86	740.0
69.87	748.0
69.88	739.0
69.89	713.0
69.9	707.0
69.91	750.0
69.92	709.0
69.93	706.0
69.94	724.0
69.95	710.0
69.96	737.0
69.97	711.0
69.98	706.0
69.99	721.0
70.0	734.0
70.01	738.0
70.02	714.0
70.03	702.0
70.04	737.0
70.05	730.0
70.06	724.0
70.07	701.0
70.08	708.0
70.09	702.0
70.1	730.0
70.11	727.0
70.12	760.0
70.13	764.0
70.14	759.0
70.15	775.0
70.16	729.0
70.17	701.0
70.18	712.0
70.19	728.0
70.2	744.0
70.21	736.0
70.22	730.0
70.23	707.0
70.24	683.0
70.25	700.0
70.26	710.0
70.27	721.0
70.28	724.0
70.29	726.0
70.3	735.0
70.31	706.0
70.32	697.0
70.33	705.0
70.34	710.0
70.35	699.0
70.36	716.0
70.37	728.0
70.38	722.0
70.39	732.0
70.4	732.0
70.41	733.0
70.42	731.0
70.43	735.0
70.44	698.0
70.45	671.0
70.46	708.0
70.47	724.0
70.48	740.0
70.49	735.0
70.5	706.0
70.51	731.0
70.52	737.0
70.53	725.0
70.54	725.0
70.55	722.0
70.56	741.0
70.57	722.0
70.58	738.0
70.59	738.0
70.6	721.0
70.61	717.0
70.62	721.0
70.63	741.0
70.64	752.0
70.65	715.0
70.66	716.0
70.67	727.0
70.68	721.0
70.69	731.0
70.7	730.0
70.71	705.0
70.72	720.0
70.73	750.0
70.74	703.0
70.75	742.0
70.76	724.0
70.77	706.0
70.78	726.0
70.79	752.0
70.8	755.0
70.81	749.0
70.82	780.0
70.83	801.0
70.84	797.0
70.85	756.0
70.86	747.0
70.87	772.0
70.88	778.0
70.89	765.0
70.9	744.0
70.91	753.0
70.92	789.0
70.93	807.0
70.94	762.0
70.95	760.0
70.96	777.0
70.97	772.0
70.98	802.0
70.99	804.0
71.0	754.0
71.01	741.0
71.02	749.0
71.03	771.0
71.04	770.0
71.05	758.0
71.06	744.0
71.07	769.0
71.08	784.0
71.09	793.0
71.1	806.0
71.11	793.0
71.12	722.0
71.13	729.0
71.14	731.0
71.15	769.0
71.16	763.0
71.17	752.0
71.18	742.0
71.19	789.0
71.2	780.0
71.21	767.0
71.22	736.0
71.23	762.0
71.24	780.0
71.25	770.0
71.26	770.0
71.27	739.0
71.28	725.0
71.29	717.0
71.3	733.0
71.31	723.0
71.32	709.0
71.33	715.0
71.34	731.0
71.35	722.0
71.36	696.0
71.37	712.0
71.38	717.0
71.39	681.0
71.4	700.0
71.41	691.0
71.42	708.0
71.43	716.0
71.44	727.0
71.45	734.0
71.46	695.0
71.47	708.0
71.48	729.0
71.49	737.0
71.5	722.0
71.51	714.0
71.52	700.0
71.53	705.0
71.54	699.0
71.55	707.0
71.56	714.0
71.57	703.0
71.58	716.0
71.59	723.0
71.6	730.0
71.61	692.0
71.62	707.0
71.63	699.0
71.64	715.0
71.65	704.0
71.66	658.0
71.67	696.0
71.68	723.0
71.69	729.0
71.7	719.0
71.71	733.0
71.72	744.0
71.73	738.0
71.74	742.0
71.75	731.0
71.76	713.0
71.77	718.0
71.78	725.0
71.79	738.0
71.8	736.0
71.81	751.0
71.82	697.0
71.83	710.0
71.84	692.0
71.85	700.0
71.86	730.0
71.87	747.0
71.88	723.0
71.89	724.0
71.9	730.0
71.91	706.0
71.92	704.0
71.93	717.0
71.94	748.0
71.95	754.0
71.96	751.0
71.97	722.0
71.98	723.0
71.99	711.0
72.0	732.0
72.01	723.0
72.02	720.0
72.03	735.0
72.04	701.0
72.05	716.0
72.06	707.0
72.07	712.0
72.08	711.0
72.09	703.0
72.1	712.0
72.11	725.0
72.12	718.0
72.13	713.0
72.14	704.0
72.15	721.0
72.16	755.0
72.17	715.0
72.18	705.0
72.19	710.0
72.2	678.0
72.21	695.0
72.22	715.0
72.23	715.0
72.24	708.0
72.25	714.0
72.26	702.0
72.27	695.0
72.28	700.0
72.29	704.0
72.3	711.0
72.31	704.0
72.32	691.0
72.33	711.0
72.34	732.0
72.35	735.0
72.36	721.0
72.37	735.0
72.38	736.0
72.39	718.0
72.4	703.0
72.41	723.0
72.42	712.0
72.43	715.0
72.44	708.0
72.45	751.0
72.46	737.0
72.47	729.0
72.48	733.0
72.49	693.0
72.5	700.0
72.51	711.0
72.52	715.0
72.53	680.0
72.54	679.0
72.55	708.0
72.56	717.0
72.57	723.0
72.58	714.0
72.59	714.0
72.6	715.0
72.61	730.0
72.62	734.0
72.63	740.0
72.64	715.0
72.65	720.0
72.66	723.0
72.67	725.0
72.68	737.0
72.69	704.0
72.7	695.0
72.71	734.0
72.72	725.0
72.73	716.0
72.74	704.0
72.75	730.0
72.76	735.0
72.77	702.0
72.78	737.0
72.79	734.0
72.8	708.0
72.81	704.0
72.82	705.0
72.83	712.0
72.84	682.0
72.85	714.0
72.86	723.0
72.87	733.0
72.88	714.0
72.89	702.0
72.9	727.0
72.91	743.0
72.92	729.0
72.93	699.0
72.94	736.0
72.95	742.0
72.96	712.0
72.97	703.0
72.98	724.0
72.99	735.0
73.0	702.0
73.01	720.0
73.02	711.0
73.03	693.0
73.04	691.0
73.05	747.0
73.06	743.0
73.07	724.0
73.08	699.0
73.09	687.0
73.1	714.0
73.11	699.0
73.12	708.0
73.13	716.0
73.14	728.0
73.15	710.0
73.16	689.0
73.17	709.0
73.18	729.0
73.19	722.0
73.2	722.0
73.21	752.0
73.22	734.0
73.23	734.0
73.24	737.0
73.25	726.0
73.26	702.0
73.27	705.0
73.28	706.0
73.29	712.0
73.3	734.0
73.31	751.0
73.32	715.0
73.33	709.0
73.34	701.0
73.35	711.0
73.36	724.0
73.37	725.0
73.38	723.0
73.39	740.0
73.4	720.0
73.41	724.0
73.42	752.0
73.43	701.0
73.44	704.0
73.45	732.0
73.46	741.0
73.47	753.0
73.48	743.0
73.49	754.0
73.5	735.0
73.51	729.0
73.52	704.0
73.53	708.0
73.54	737.0
73.55	752.0
73.56	759.0
73.57	762.0
73.58	726.0
73.59	715.0
73.6	754.0
73.61	758.0
73.62	727.0
73.63	707.0
73.64	750.0
73.65	741.0
73.66	746.0
73.67	768.0
73.68	745.0
73.69	738.0
73.7	712.0
73.71	749.0
73.72	752.0
73.73	745.0
73.74	768.0
73.75	777.0
73.76	749.0
73.77	762.0
73.78	792.0
73.79	795.0
73.8	826.0
73.81	873.0
73.82	849.0
73.83	848.0
73.84	885.0
73.85	914.0
73.86	936.0
73.87	942.0
73.88	981.0
73.89	970.0
73.9	959.0
73.91	1014.0
73.92	1059.0
73.93	1053.0
73.94	1044.0
73.95	1066.0
73.96	1080.0
73.97	1060.0
73.98	1077.0
73.99	1065.0
74.0	1070.0
74.01	1088.0
74.02	1125.0
74.03	1111.0
74.04	1069.0
74.05	1076.0
74.06	1077.0
74.07	1122.0
74.08	1134.0
74.09	1161.0
74.1	1126.0
74.11	1101.0
74.12	1084.0
74.13	1147.0
74.14	1144.0
74.15	1089.0
74.16	1049.0
74.17	1036.0
74.18	1063.0
74.19	1074.0
74.2	1035.0
74.21	1043.0
74.22	1045.0
74.23	1023.0
74.24	994.0
74.25	975.0
74.26	973.0
74.27	988.0
74.28	995.0
74.29	938.0
74.3	882.0
74.31	928.0
74.32	959.0
74.33	944.0
74.34	899.0
74.35	895.0
74.36	881.0
74.37	941.0
74.38	900.0
74.39	897.0
74.4	848.0
74.41	815.0
74.42	829.0
74.43	840.0
74.44	812.0
74.45	835.0
74.46	831.0
74.47	801.0
74.48	786.0
74.49	806.0
74.5	799.0
74.51	796.0
74.52	770.0
74.53	777.0
74.54	769.0
74.55	739.0
74.56	758.0
74.57	802.0
74.58	800.0
74.59	788.0
74.6	793.0
74.61	790.0
74.62	784.0
74.63	781.0
74.64	769.0
74.65	763.0
74.66	774.0
74.67	776.0
74.68	777.0
74.69	779.0
74.7	774.0
74.71	776.0
74.72	770.0
74.73	739.0
74.74	796.0
74.75	814.0
74.76	772.0
74.77	785.0
74.78	804.0
74.79	792.0
74.8	795.0
74.81	813.0
74.82	822.0
74.83	801.0
74.84	805.0
74.85	846.0
74.86	867.0
74.87	855.0
74.88	861.0
74.89	867.0
74.9	916.0
74.91	911.0
74.92	889.0
74.93	919.0
74.94	922.0
74.95	925.0
74.96	973.0
74.97	944.0
74.98	901.0
74.99	914.0
75.0	955.0
75.01	934.0
75.02	956.0
75.03	978.0
75.04	984.0
75.05	997.0
75.06	969.0
75.07	930.0
75.08	943.0
75.09	967.0
75.1	960.0
75.11	959.0
75.12	963.0
75.13	947.0
75.14	976.0
75.15	939.0
75.16	937.0
75.17	950.0
75.18	965.0
75.19	935.0
75.2	940.0
75.21	947.0
75.22	917.0
75.23	907.0
75.24	913.0
75.25	909.0
75.26	899.0
75.27	891.0
75.28	873.0
75.29	860.0
75.3	850.0
75.31	862.0
75.32	852.0
75.33	845.0
75.34	857.0
75.35	831.0
75.36	843.0
75.37	816.0
75.38	770.0
75.39	802.0
75.4	803.0
75.41	832.0
75.42	833.0
75.43	801.0
75.44	795.0
75.45	780.0
75.46	777.0
75.47	760.0
75.48	794.0
75.49	791.0
75.5	797.0
75.51	781.0
75.52	793.0
75.53	799.0
75.54	772.0
75.55	753.0
75.56	757.0
75.57	765.0
75.58	773.0
75.59	747.0
75.6	728.0
75.61	685.0
75.62	740.0
75.63	759.0
75.64	737.0
75.65	734.0
75.66	729.0
75.67	733.0
75.68	708.0
75.69	734.0
75.7	736.0
75.71	719.0
75.72	704.0
75.73	734.0
75.74	758.0
75.75	747.0
75.76	757.0
75.77	729.0
75.78	731.0
75.79	755.0
75.8	727.0
75.81	769.0
75.82	762.0
75.83	778.0
75.84	774.0
75.85	750.0
75.86	719.0
75.87	752.0
75.88	729.0
75.89	700.0
75.9	705.0
75.91	707.0
75.92	712.0
75.93	706.0
75.94	702.0
75.95	700.0
75.96	706.0
75.97	719.0
75.98	699.0
75.99	726.0
76.0	736.0
76.01	702.0
76.02	690.0
76.03	686.0
76.04	703.0
76.05	676.0
76.06	692.0
76.07	709.0
76.08	718.0
76.09	685.0
76.1	698.0
76.11	706.0
76.12	701.0
76.13	706.0
76.14	722.0
76.15	727.0
76.16	696.0
76.17	689.0
76.18	719.0
76.19	757.0
76.2	761.0
76.21	722.0
76.22	713.0
76.23	691.0
76.24	682.0
76.25	698.0
76.26	706.0
76.27	686.0
76.28	721.0
76.29	729.0
76.3	685.0
76.31	699.0
76.32	695.0
76.33	703.0
76.34	695.0
76.35	708.0
76.36	738.0
76.37	726.0
76.38	724.0
76.39	719.0
76.4	693.0
76.41	699.0
76.42	685.0
76.43	698.0
76.44	709.0
76.45	704.0
76.46	707.0
76.47	689.0
76.48	686.0
76.49	707.0
76.5	699.0
76.51	706.0
76.52	704.0
76.53	698.0
76.54	704.0
76.55	709.0
76.56	712.0
76.57	695.0
76.58	694.0
76.59	707.0
76.6	679.0
76.61	687.0
76.62	694.0
76.63	712.0
76.64	722.0
76.65	705.0
76.66	719.0
76.67	725.0
76.68	681.0
76.69	685.0
76.7	688.0
76.71	706.0
76.72	702.0
76.73	684.0
76.74	685.0
76.75	702.0
76.76	729.0
76.77	729.0
76.78	697.0
76.79	701.0
76.8	688.0
76.81	704.0
76.82	700.0
76.83	704.0
76.84	697.0
76.85	699.0
76.86	703.0
76.87	719.0
76.88	688.0
76.89	668.0
76.9	703.0
76.91	690.0
76.92	694.0
76.93	695.0
76.94	686.0
76.95	696.0
76.96	703.0
76.97	719.0
76.98	738.0
76.99	708.0
77.0	684.0
77.01	705.0
77.02	696.0
77.03	661.0
77.04	672.0
77.05	709.0
77.06	708.0
77.07	690.0
77.08	692.0
77.09	697.0
77.1	736.0
77.11	703.0
77.12	660.0
77.13	688.0
77.14	715.0
77.15	698.0
77.16	705.0
77.17	690.0
77.18	672.0
77.19	695.0
77.2	710.0
77.21	682.0
77.22	667.0
77.23	661.0
77.24	693.0
77.25	663.0
77.26	649.0
77.27	644.0
77.28	664.0
77.29	672.0
77.3	694.0
77.31	716.0
77.32	673.0
77.33	678.0
77.34	668.0
77.35	664.0
77.36	678.0
77.37	683.0
77.38	680.0
77.39	680.0
77.4	672.0
77.41	672.0
77.42	672.0
77.43	657.0
77.44	669.0
77.45	664.0
77.46	643.0
77.47	691.0
77.48	687.0
77.49	665.0
77.5	655.0
77.51	685.0
77.52	705.0
77.53	739.0
77.54	706.0
77.55	667.0
77.56	668.0
77.57	725.0
77.58	713.0
77.59	706.0
77.6	728.0
77.61	694.0
77.62	665.0
77.63	657.0
77.64	666.0
77.65	704.0
77.66	696.0
77.67	664.0
77.68	651.0
77.69	672.0
77.7	711.0
77.71	689.0
77.72	678.0
77.73	690.0
77.74	678.0
77.75	670.0
77.76	682.0
77.77	695.0
77.78	695.0
77.79	689.0
77.8	716.0
77.81	687.0
77.82	679.0
77.83	682.0
77.84	653.0
77.85	649.0
77.86	662.0
77.87	670.0
77.88	678.0
77.89	688.0
77.9	700.0
77.91	695.0
77.92	704.0
77.93	688.0
77.94	704.0
77.95	688.0
77.96	687.0
77.97	679.0
77.98	662.0
77.99	682.0
78.0	681.0
78.01	690.0
78.02	682.0
78.03	684.0
78.04	694.0
78.05	688.0
78.06	692.0
78.07	675.0
78.08	670.0
78.09	669.0
78.1	696.0
78.11	702.0
78.12	672.0
78.13	660.0
78.14	675.0
78.15	705.0
78.16	683.0
78.17	662.0
78.18	674.0
78.19	693.0
78.2	700.0
78.21	667.0
78.22	683.0
78.23	701.0
78.24	690.0
78.25	701.0
78.26	715.0
78.27	672.0
78.28	662.0
78.29	656.0
78.3	688.0
78.31	677.0
78.32	671.0
78.33	673.0
78.34	679.0
78.35	676.0
78.36	664.0
78.37	679.0
78.38	689.0
78.39	675.0
78.4	658.0
78.41	690.0
78.42	680.0
78.43	691.0
78.44	678.0
78.45	654.0
78.46	672.0
78.47	675.0
78.48	656.0
78.49	670.0
78.5	708.0
78.51	725.0
78.52	704.0
78.53	694.0
78.54	700.0
78.55	676.0
78.56	681.0
78.57	672.0
78.58	688.0
78.59	665.0
78.6	656.0
78.61	676.0
78.62	709.0
78.63	725.0
78.64	712.0
78.65	695.0
78.66	699.0
78.67	716.0
78.68	702.0
78.69	695.0
78.7	741.0
78.71	766.0
78.72	721.0
78.73	714.0
78.74	773.0
78.75	782.0
78.76	793.0
78.77	811.0
78.78	803.0
78.79	810.0
78.8	787.0
78.81	825.0
78.82	865.0
78.83	835.0
78.84	835.0
78.85	858.0
78.86	908.0
78.87	920.0
78.88	922.0
78.89	974.0
78.9	993.0
78.91	959.0
78.92	931.0
78.93	983.0
78.94	999.0
78.95	976.0
78.96	1018.0
78.97	1007.0
78.98	997.0
78.99	1038.0
79.0	1068.0
79.01	1051.0
79.02	1050.0
79.03	1036.0
79.04	1058.0
79.05	1037.0
79.06	1037.0
79.07	1029.0
79.08	1075.0
79.09	1078.0
79.1	1063.0
79.11	1037.0
79.12	1029.0
79.13	1009.0
79.14	1004.0
79.15	999.0
79.16	1000.0
79.17	996.0
79.18	986.0
79.19	985.0
79.2	994.0
79.21	1000.0
79.22	982.0
79.23	961.0
79.24	907.0
79.25	927.0
79.26	942.0
79.27	950.0
79.28	927.0
79.29	925.0
79.3	922.0
79.31	925.0
79.32	900.0
79.33	889.0
79.34	877.0
79.35	875.0
79.36	888.0
79.37	864.0
79.38	852.0
79.39	820.0
79.4	829.0
79.41	854.0
79.42	836.0
79.43	812.0
79.44	785.0
79.45	758.0
79.46	801.0
79.47	819.0
79.48	822.0
79.49	791.0
79.5	787.0
79.51	733.0
79.52	757.0
79.53	768.0
79.54	764.0
79.55	764.0
79.56	766.0
79.57	778.0
79.58	762.0
79.59	751.0
79.6	763.0
79.61	739.0
79.62	731.0
79.63	728.0
79.64	723.0
79.65	755.0
79.66	734.0
79.67	743.0
79.68	765.0
79.69	747.0
79.7	739.0
79.71	728.0
79.72	734.0
79.73	740.0
79.74	749.0
79.75	751.0
79.76	726.0
79.77	701.0
79.78	736.0
79.79	738.0
79.8	740.0
79.81	724.0
79.82	712.0
79.83	743.0
79.84	739.0
79.85	738.0
79.86	715.0
79.87	695.0
79.88	712.0
79.89	720.0
79.9	740.0
79.91	740.0
79.92	717.0
79.93	692.0
79.94	717.0
79.95	720.0
79.96	686.0
79.97	724.0
79.98	754.0
79.99	727.0
80.0	717.0
80.01	715.0
80.02	708.0
80.03	708.0
80.04	708.0
80.05	712.0
80.06	722.0
80.07	718.0
80.08	740.0
80.09	715.0
80.1	720.0
80.11	713.0
80.12	700.0
80.13	726.0
80.14	717.0
80.15	721.0
80.16	683.0
80.17	674.0
80.18	688.0
80.19	688.0
80.2	683.0
80.21	714.0
80.22	708.0
80.23	680.0
80.24	672.0
80.25	715.0
80.26	683.0
80.27	692.0
80.28	698.0
80.29	690.0
80.3	689.0
80.31	699.0
80.32	701.0
80.33	683.0
80.34	674.0
80.35	664.0
80.36	694.0
80.37	693.0
80.38	708.0
80.39	689.0
80.4	675.0
80.41	692.0
80.42	711.0
80.43	724.0
80.44	658.0
80.45	657.0
80.46	683.0
80.47	663.0
80.48	725.0
80.49	694.0
80.5	683.0
80.51	698.0
80.52	705.0
80.53	686.0
80.54	680.0
80.55	666.0
80.56	703.0
80.57	709.0
80.58	690.0
80.59	672.0
80.6	662.0
80.61	677.0
80.62	709.0
80.63	708.0
80.64	697.0
80.65	703.0
80.66	712.0
80.67	672.0
80.68	688.0
80.69	686.0
80.7	684.0
80.71	689.0
80.72	688.0
80.73	696.0
80.74	697.0
80.75	696.0
80.76	711.0
80.77	736.0
80.78	699.0
80.79	726.0
80.8	725.0
80.81	686.0
80.82	682.0
80.83	693.0
80.84	686.0
80.85	701.0
80.86	720.0
80.87	699.0
80.88	717.0
80.89	709.0
80.9	700.0
80.91	708.0
80.92	702.0
80.93	686.0
80.94	686.0
80.95	705.0
80.96	708.0
80.97	698.0
80.98	708.0
80.99	674.0
81.0	707.0
81.01	683.0
81.02	684.0
81.03	686.0
81.04	661.0
81.05	671.0
81.06	694.0
81.07	693.0
81.08	640.0
81.09	684.0
81.1	678.0
81.11	703.0
81.12	726.0
81.13	706.0
81.14	666.0
81.15	670.0
81.16	673.0
81.17	689.0
81.18	667.0
81.19	642.0
81.2	667.0
81.21	673.0
81.22	667.0
81.23	692.0
81.24	702.0
81.25	679.0
81.26	687.0
81.27	690.0
81.28	694.0
81.29	681.0
81.3	663.0
81.31	658.0
81.32	665.0
81.33	674.0
81.34	663.0
81.35	657.0
81.36	686.0
81.37	659.0
81.38	659.0
81.39	688.0
81.4	671.0
81.41	661.0
81.42	678.0
81.43	671.0
81.44	687.0
81.45	701.0
81.46	717.0
81.47	691.0
81.48	689.0
81.49	708.0
81.5	712.0
81.51	694.0
81.52	699.0
81.53	716.0
81.54	703.0
81.55	697.0
81.56	706.0
81.57	692.0
81.58	683.0
81.59	676.0
81.6	709.0
81.61	700.0
81.62	718.0
81.63	685.0
81.64	687.0
81.65	728.0
81.66	755.0
81.67	742.0
81.68	742.0
81.69	768.0
81.7	767.0
81.71	750.0
81.72	703.0
81.73	724.0
81.74	749.0
81.75	785.0
81.76	810.0
81.77	809.0
81.78	790.0
81.79	784.0
81.8	810.0
81.81	785.0
81.82	785.0
81.83	818.0
81.84	811.0
81.85	837.0
81.86	834.0
81.87	813.0
81.88	777.0
81.89	818.0
81.9	856.0
81.91	872.0
81.92	896.0
81.93	861.0
81.94	854.0
81.95	872.0
81.96	868.0
81.97	858.0
81.98	860.0
81.99	878.0
82.0	877.0
82.01	871.0
82.02	897.0
82.03	883.0
82.04	893.0
82.05	879.0
82.06	838.0
82.07	845.0
82.08	845.0
82.09	862.0
82.1	896.0
82.11	911.0
82.12	874.0
82.13	843.0
82.14	808.0
82.15	829.0
82.16	844.0
82.17	817.0
82.18	789.0
82.19	795.0
82.2	798.0
82.21	788.0
82.22	810.0
82.23	818.0
82.24	819.0
82.25	815.0
82.26	799.0
82.27	781.0
82.28	796.0
82.29	813.0
82.3	800.0
82.31	805.0
82.32	804.0
82.33	772.0
82.34	756.0
82.35	764.0
82.36	767.0
82.37	754.0
82.38	759.0
82.39	732.0
82.4	731.0
82.41	727.0
82.42	754.0
82.43	765.0
82.44	742.0
82.45	731.0
82.46	700.0
82.47	726.0
82.48	746.0
82.49	722.0
82.5	731.0
82.51	701.0
82.52	693.0
82.53	715.0
82.54	735.0
82.55	709.0
82.56	701.0
82.57	727.0
82.58	751.0
82.59	748.0
82.6	727.0
82.61	711.0
82.62	731.0
82.63	737.0
82.64	706.0
82.65	704.0
82.66	704.0
82.67	721.0
82.68	712.0
82.69	715.0
82.7	711.0
82.71	703.0
82.72	703.0
82.73	709.0
82.74	685.0
82.75	715.0
82.76	707.0
82.77	703.0
82.78	700.0
82.79	698.0
82.8	699.0
82.81	679.0
82.82	693.0
82.83	700.0
82.84	716.0
82.85	736.0
82.86	724.0
82.87	717.0
82.88	700.0
82.89	717.0
82.9	727.0
82.91	714.0
82.92	705.0
82.93	724.0
82.94	719.0
82.95	696.0
82.96	700.0
82.97	691.0
82.98	702.0
82.99	682.0
83.0	669.0
83.01	675.0
83.02	718.0
83.03	706.0
83.04	685.0
83.05	677.0
83.06	699.0
83.07	688.0
83.08	679.0
83.09	673.0
83.1	692.0
83.11	677.0
83.12	689.0
83.13	700.0
83.14	693.0
83.15	669.0
83.16	675.0
83.17	697.0
83.18	719.0
83.19	726.0
83.2	699.0
83.21	683.0
83.22	692.0
83.23	711.0
83.24	733.0
83.25	729.0
83.26	695.0
83.27	672.0
83.28	677.0
83.29	702.0
83.3	692.0
83.31	690.0
83.32	678.0
83.33	679.0
83.34	700.0
83.35	705.0
83.36	694.0
83.37	683.0
83.38	673.0
83.39	676.0
83.4	667.0
83.41	690.0
83.42	692.0
83.43	681.0
83.44	665.0
83.45	688.0
83.46	698.0
83.47	709.0
83.48	684.0
83.49	659.0
83.5	672.0
83.51	661.0
83.52	669.0
83.53	656.0
83.54	669.0
83.55	653.0
83.56	662.0
83.57	691.0
83.58	700.0
83.59	673.0
83.6	654.0
83.61	666.0
83.62	666.0
83.63	658.0
83.64	659.0
83.65	684.0
83.66	676.0
83.67	671.0
83.68	673.0
83.69	663.0
83.7	648.0
83.71	662.0
83.72	674.0
83.73	660.0
83.74	652.0
83.75	669.0
83.76	663.0
83.77	679.0
83.78	691.0
83.79	687.0
83.8	660.0
83.81	638.0
83.82	653.0
83.83	674.0
83.84	666.0
83.85	652.0
83.86	661.0
83.87	644.0
83.88	682.0
83.89	687.0
83.9	653.0
83.91	680.0
83.92	654.0
83.93	669.0
83.94	664.0
83.95	702.0
83.96	687.0
83.97	635.0
83.98	637.0
83.99	648.0
84.0	659.0
84.01	695.0
84.02	691.0
84.03	674.0
84.04	648.0
84.05	644.0
84.06	642.0
84.07	660.0
84.08	659.0
84.09	648.0
84.1	673.0
84.11	672.0
84.12	699.0
84.13	698.0
84.14	665.0
84.15	660.0
84.16	654.0
84.17	674.0
84.18	673.0
84.19	666.0
84.2	658.0
84.21	648.0
84.22	661.0
84.23	666.0
84.24	684.0
84.25	667.0
84.26	652.0
84.27	661.0
84.28	677.0
84.29	681.0
84.3	669.0
84.31	679.0
84.32	675.0
84.33	675.0
84.34	694.0
84.35	668.0
84.36	660.0
84.37	658.0
84.38	653.0
84.39	640.0
84.4	660.0
84.41	686.0
84.42	685.0
84.43	684.0
84.44	668.0
84.45	690.0
84.46	686.0
84.47	649.0
84.48	654.0
84.49	690.0
84.5	693.0
84.51	672.0
84.52	658.0
84.53	641.0
84.54	636.0
84.55	670.0
84.56	677.0
84.57	676.0
84.58	667.0
84.59	672.0
84.6	660.0
84.61	646.0
84.62	642.0
84.63	653.0
84.64	653.0
84.65	681.0
84.66	686.0
84.67	702.0
84.68	697.0
84.69	674.0
84.7	662.0
84.71	671.0
84.72	656.0
84.73	678.0
84.74	678.0
84.75	650.0
84.76	652.0
84.77	661.0
84.78	645.0
84.79	658.0
84.8	700.0
84.81	706.0
84.82	678.0
84.83	661.0
84.84	671.0
84.85	655.0
84.86	649.0
84.87	644.0
84.88	627.0
84.89	648.0
84.9	675.0
84.91	691.0
84.92	678.0
84.93	682.0
84.94	679.0
84.95	685.0
84.96	671.0
84.97	672.0
84.98	678.0
84.99	661.0
85.0	660.0
85.01	659.0
85.02	649.0
85.03	655.0
85.04	653.0
85.05	644.0
85.06	654.0
85.07	668.0
85.08	669.0
85.09	697.0
85.1	682.0
85.11	670.0
85.12	659.0
85.13	649.0
85.14	630.0
85.15	653.0
85.16	636.0
85.17	656.0
85.18	666.0
85.19	673.0
85.2	660.0
85.21	651.0
85.22	647.0
85.23	635.0
85.24	650.0
85.25	664.0
85.26	674.0
85.27	681.0
85.28	664.0
85.29	661.0
85.3	692.0
85.31	689.0
85.32	659.0
85.33	655.0
85.34	674.0
85.35	649.0
85.36	649.0
85.37	657.0
85.38	663.0
85.39	694.0
85.4	689.0
85.41	688.0
85.42	682.0
85.43	678.0
85.44	665.0
85.45	664.0
85.46	678.0
85.47	659.0
85.48	647.0
85.49	642.0
85.5	639.0
85.51	681.0
85.52	701.0
85.53	688.0
85.54	663.0
85.55	644.0
85.56	658.0
85.57	674.0
85.58	679.0
85.59	672.0
85.6	655.0
85.61	657.0
85.62	627.0
85.63	631.0
85.64	653.0
85.65	681.0
85.66	675.0
85.67	650.0
85.68	655.0
85.69	660.0
85.7	673.0
85.71	679.0
85.72	667.0
85.73	650.0
85.74	644.0
85.75	665.0
85.76	662.0
85.77	660.0
85.78	641.0
85.79	647.0
85.8	658.0
85.81	681.0
85.82	656.0
85.83	635.0
85.84	661.0
85.85	699.0
85.86	693.0
85.87	663.0
85.88	652.0
85.89	678.0
85.9	690.0
85.91	675.0
85.92	676.0
85.93	699.0
85.94	680.0
85.95	675.0
85.96	660.0
85.97	653.0
85.98	663.0
85.99	660.0
86.0	653.0
86.01	668.0
86.02	671.0
86.03	686.0
86.04	679.0
86.05	674.0
86.06	682.0
86.07	665.0
86.08	656.0
86.09	663.0
86.1	667.0
86.11	665.0
86.12	686.0
86.13	690.0
86.14	659.0
86.15	660.0
86.16	655.0
86.17	678.0
86.18	660.0
86.19	693.0
86.2	704.0
86.21	677.0
86.22	658.0
86.23	671.0
86.24	670.0
86.25	660.0
86.26	657.0
86.27	672.0
86.28	655.0
86.29	678.0
86.3	678.0
86.31	691.0
86.32	699.0
86.33	666.0
86.34	638.0
86.35	643.0
86.36	661.0
86.37	664.0
86.38	659.0
86.39	660.0
86.4	690.0
86.41	708.0
86.42	714.0
86.43	704.0
86.44	680.0
86.45	663.0
86.46	668.0
86.47	665.0
86.48	690.0
86.49	673.0
86.5	683.0
86.51	698.0
86.52	699.0
86.53	691.0
86.54	692.0
86.55	716.0
86.56	730.0
86.57	723.0
86.58	709.0
86.59	694.0
86.6	711.0
86.61	712.0
86.62	723.0
86.63	708.0
86.64	730.0
86.65	726.0
86.66	711.0
86.67	741.0
86.68	765.0
86.69	740.0
86.7	713.0
86.71	723.0
86.72	738.0
86.73	748.0
86.74	743.0
86.75	713.0
86.76	683.0
86.77	711.0
86.78	747.0
86.79	728.0
86.8	714.0
86.81	714.0
86.82	699.0
86.83	694.0
86.84	712.0
86.85	722.0
86.86	721.0
86.87	734.0
86.88	729.0
86.89	718.0
86.9	729.0
86.91	743.0
86.92	742.0
86.93	738.0
86.94	740.0
86.95	717.0
86.96	709.0
86.97	730.0
86.98	712.0
86.99	696.0
87.0	680.0
87.01	692.0
87.02	716.0
87.03	717.0
87.04	721.0
87.05	700.0
87.06	690.0
87.07	702.0
87.08	716.0
87.09	710.0
87.1	705.0
87.11	713.0
87.12	713.0
87.13	718.0
87.14	713.0
87.15	701.0
87.16	684.0
87.17	669.0
87.18	652.0
87.19	666.0
87.2	667.0
87.21	682.0
87.22	702.0
87.23	687.0
87.24	688.0
87.25	666.0
87.26	655.0
87.27	668.0
87.28	665.0
87.29	686.0
87.3	709.0
87.31	691.0
87.32	685.0
87.33	682.0
87.34	682.0
87.35	695.0
87.36	693.0
87.37	692.0
87.38	676.0
87.39	679.0
87.4	678.0
87.41	675.0
87.42	663.0
87.43	661.0
87.44	682.0
87.45	662.0
87.46	655.0
87.47	659.0
87.48	654.0
87.49	644.0
87.5	660.0
87.51	677.0
87.52	670.0
87.53	638.0
87.54	635.0
87.55	675.0
87.56	684.0
87.57	664.0
87.58	670.0
87.59	698.0
87.6	704.0
87.61	678.0
87.62	672.0
87.63	665.0
87.64	639.0
87.65	665.0
87.66	693.0
87.67	672.0
87.68	655.0
87.69	650.0
87.7	648.0
87.71	665.0
87.72	692.0
87.73	674.0
87.74	662.0
87.75	660.0
87.76	699.0
87.77	688.0
87.78	676.0
87.79	682.0
87.8	681.0
87.81	664.0
87.82	669.0
87.83	691.0
87.84	690.0
87.85	678.0
87.86	664.0
87.87	655.0
87.88	672.0
87.89	674.0
87.9	663.0
87.91	647.0
87.92	646.0
87.93	656.0
87.94	671.0
87.95	665.0
87.96	666.0
87.97	657.0
87.98	652.0
87.99	662.0
88.0	683.0
88.01	684.0
88.02	662.0
88.03	641.0
88.04	637.0
88.05	647.0
88.06	665.0
88.07	666.0
88.08	662.0
88.09	668.0
88.1	698.0
88.11	663.0
88.12	664.0
88.13	673.0
88.14	669.0
88.15	659.0
88.16	645.0
88.17	643.0
88.18	656.0
88.19	666.0
88.2	661.0
88.21	681.0
88.22	687.0
88.23	664.0
88.24	657.0
88.25	643.0
88.26	635.0
88.27	669.0
88.28	668.0
88.29	666.0
88.3	670.0
88.31	679.0
88.32	680.0
88.33	689.0
88.34	686.0
88.35	667.0
88.36	649.0
88.37	658.0
88.38	679.0
88.39	662.0
88.4	658.0
88.41	651.0
88.42	665.0
88.43	666.0
88.44	662.0
88.45	670.0
88.46	675.0
88.47	681.0
88.48	664.0
88.49	673.0
88.5	690.0
88.51	677.0
88.52	686.0
88.53	695.0
88.54	675.0
88.55	684.0
88.56	671.0
88.57	669.0
88.58	648.0
88.59	645.0
88.6	669.0
88.61	665.0
88.62	642.0
88.63	630.0
88.64	629.0
88.65	645.0
88.66	671.0
88.67	654.0
88.68	629.0
88.69	649.0
88.7	666.0
88.71	681.0
88.72	681.0
88.73	666.0
88.74	644.0
88.75	641.0
88.76	668.0
88.77	699.0
88.78	705.0
88.79	674.0
88.8	664.0
88.81	685.0
88.82	682.0
88.83	661.0
88.84	658.0
88.85	654.0
88.86	652.0
88.87	677.0
88.88	688.0
88.89	683.0
88.9	677.0
88.91	681.0
88.92	666.0
88.93	674.0
88.94	688.0
88.95	674.0
88.96	653.0
88.97	686.0
88.98	690.0
88.99	688.0
89.0	692.0
89.01	695.0
89.02	690.0
89.03	703.0
89.04	698.0
89.05	671.0
89.06	667.0
89.07	681.0
89.08	684.0
89.09	684.0
89.1	695.0
89.11	682.0
89.12	674.0
89.13	690.0
89.14	700.0
89.15	704.0
89.16	724.0
89.17	712.0
89.18	692.0
89.19	703.0
89.2	713.0
89.21	722.0
89.22	718.0
89.23	715.0
89.24	729.0
89.25	743.0
89.26	747.0
89.27	745.0
89.28	729.0
89.29	711.0
89.3	709.0
89.31	720.0
89.32	732.0
89.33	722.0
89.34	723.0
89.35	740.0
89.36	811.0
89.37	832.0
89.38	817.0
89.39	830.0
89.4	824.0
89.41	833.0
89.42	846.0
89.43	864.0
89.44	900.0
89.45	933.0
89.46	943.0
89.47	932.0
89.48	920.0
89.49	935.0
89.5	962.0
89.51	994.0
89.52	992.0
89.53	963.0
89.54	988.0
89.55	1038.0
89.56	1075.0
89.57	1089.0
89.58	1097.0
89.59	1081.0
89.6	1065.0
89.61	1068.0
89.62	1057.0
89.63	1046.0
89.64	1087.0
89.65	1121.0
89.66	1132.0
89.67	1142.0
89.68	1163.0
89.69	1168.0
89.7	1157.0
89.71	1126.0
89.72	1112.0
89.73	1139.0
89.74	1153.0
89.75	1148.0
89.76	1153.0
89.77	1177.0
89.78	1181.0
89.79	1169.0
89.8	1142.0
89.81	1161.0
89.82	1173.0
89.83	1137.0
89.84	1139.0
89.85	1118.0
89.86	1075.0
89.87	1083.0
89.88	1106.0
89.89	1099.0
89.9	1086.0
89.91	1086.0
89.92	1090.0
89.93	1080.0
89.94	1054.0
89.95	1023.0
89.96	1004.0
89.97	1001.0
89.98	1001.0
89.99	1016.0
90.0	1022.0
90.01	1002.0
90.02	989.0
90.03	976.0
90.04	955.0
90.05	950.0
90.06	941.0
90.07	931.0
90.08	934.0
90.09	936.0
90.1	929.0
90.11	917.0
90.12	894.0
90.13	865.0
90.14	855.0
90.15	859.0
90.16	865.0
90.17	866.0
90.18	834.0
90.19	803.0
90.2	805.0
90.21	804.0
90.22	797.0
90.23	816.0
90.24	830.0
90.25	824.0
90.26	831.0
90.27	816.0
90.28	797.0
90.29	808.0
90.3	814.0
90.31	800.0
90.32	809.0
90.33	799.0
90.34	759.0
90.35	744.0
90.36	750.0
90.37	759.0
90.38	748.0
90.39	733.0
90.4	745.0
90.41	763.0
90.42	748.0
90.43	746.0
90.44	752.0
90.45	726.0
90.46	729.0
90.47	726.0
90.48	707.0
90.49	708.0
90.5	711.0
90.51	707.0
90.52	706.0
90.53	713.0
90.54	716.0
90.55	706.0
90.56	715.0
90.57	742.0
90.58	747.0
90.59	728.0
90.6	721.0
90.61	723.0
90.62	721.0
90.63	724.0
90.64	721.0
90.65	683.0
90.66	672.0
90.67	709.0
90.68	691.0
90.69	677.0
90.7	705.0
90.71	713.0
90.72	709.0
90.73	692.0
90.74	675.0
90.75	679.0
90.76	691.0
90.77	696.0
90.78	690.0
90.79	677.0
90.8	681.0
90.81	695.0
90.82	700.0
90.83	714.0
90.84	723.0
90.85	726.0
90.86	698.0
90.87	679.0
90.88	689.0
90.89	692.0
90.9	698.0
90.91	693.0
90.92	682.0
90.93	680.0
90.94	681.0
90.95	693.0
90.96	712.0
90.97	718.0
90.98	719.0
90.99	706.0
91.0	685.0
91.01	676.0
91.02	673.0
91.03	670.0
91.04	662.0
91.05	678.0
91.06	695.0
91.07	688.0
91.08	678.0
91.09	665.0
91.1	661.0
91.11	675.0
91.12	688.0
91.13	690.0
91.14	679.0
91.15	693.0
91.16	708.0
91.17	695.0
91.18	670.0
91.19	650.0
91.2	649.0
91.21	656.0
91.22	677.0
91.23	688.0
91.24	675.0
91.25	677.0
91.26	699.0
91.27	682.0
91.28	669.0
91.29	690.0
91.3	701.0
91.31	692.0
91.32	680.0
91.33	691.0
91.34	683.0
91.35	684.0
91.36	695.0
91.37	683.0
91.38	690.0
91.39	703.0
91.4	697.0
91.41	696.0
91.42	691.0
91.43	689.0
91.44	694.0
91.45	690.0
91.46	681.0
91.47	698.0
91.48	712.0
91.49	715.0
91.5	701.0
91.51	666.0
91.52	663.0
91.53	658.0
91.54	672.0
91.55	682.0
91.56	676.0
91.57	678.0
91.58	659.0
91.59	663.0
91.6	689.0
91.61	694.0
91.62	668.0
91.63	655.0
91.64	661.0
91.65	663.0
91.66	680.0
91.67	693.0
91.68	697.0
91.69	693.0
91.7	675.0
91.71	660.0
91.72	669.0
91.73	696.0
91.74	687.0
91.75	664.0
91.76	690.0
91.77	712.0
91.78	692.0
91.79	663.0
91.8	656.0
91.81	663.0
91.82	668.0
91.83	681.0
91.84	677.0
91.85	665.0
91.86	671.0
91.87	680.0
91.88	681.0
91.89	680.0
91.9	676.0
91.91	668.0
91.92	679.0
91.93	689.0
91.94	685.0
91.95	678.0
91.96	670.0
91.97	682.0
91.98	687.0
91.99	666.0
92.0	654.0
92.01	670.0
92.02	678.0
92.03	659.0
92.04	644.0
92.05	652.0
92.06	663.0
92.07	671.0
92.08	665.0
92.09	670.0
92.1	671.0
92.11	664.0
92.12	683.0
92.13	683.0
92.14	668.0
92.15	683.0
92.16	689.0
92.17	677.0
92.18	670.0
92.19	674.0
92.2	655.0
92.21	643.0
92.22	646.0
92.23	647.0
92.24	657.0
92.25	659.0
92.26	659.0
92.27	666.0
92.28	647.0
92.29	649.0
92.3	669.0
92.31	677.0
92.32	678.0
92.33	667.0
92.34	659.0
92.35	663.0
92.36	664.0
92.37	672.0
92.38	658.0
92.39	666.0
92.4	697.0
92.41	692.0
92.42	671.0
92.43	668.0
92.44	675.0
92.45	672.0
92.46	661.0
92.47	673.0
92.48	702.0
92.49	689.0
92.5	650.0
92.51	644.0
92.52	660.0
92.53	665.0
92.54	668.0
92.55	658.0
92.56	656.0
92.57	648.0
92.58	659.0
92.59	688.0
92.6	669.0
92.61	653.0
92.62	657.0
92.63	666.0
92.64	663.0
92.65	671.0
92.66	686.0
92.67	675.0
92.68	652.0
92.69	650.0
92.7	671.0
92.71	687.0
92.72	685.0
92.73	668.0
92.74	663.0
92.75	656.0
92.76	662.0
92.77	663.0
92.78	657.0
92.79	670.0
92.8	662.0
92.81	666.0
92.82	680.0
92.83	657.0
92.84	637.0
92.85	655.0
92.86	664.0
92.87	655.0
92.88	661.0
92.89	675.0
92.9	678.0
92.91	643.0
92.92	622.0
92.93	656.0
92.94	686.0
92.95	676.0
92.96	667.0
92.97	680.0
92.98	659.0
92.99	660.0
93.0	675.0
93.01	670.0
93.02	659.0
93.03	645.0
93.04	631.0
93.05	632.0
93.06	654.0
93.07	665.0
93.08	663.0
93.09	673.0
93.1	676.0
93.11	669.0
93.12	663.0
93.13	666.0
93.14	668.0
93.15	658.0
93.16	635.0
93.17	646.0
93.18	671.0
93.19	665.0
93.2	659.0
93.21	641.0
93.22	657.0
93.23	670.0
93.24	661.0
93.25	646.0
93.26	648.0
93.27	688.0
93.28	694.0
93.29	677.0
93.3	667.0
93.31	671.0
93.32	668.0
93.33	672.0
93.34	676.0
93.35	683.0
93.36	694.0
93.37	693.0
93.38	684.0
93.39	676.0
93.4	681.0
93.41	673.0
93.42	645.0
93.43	649.0
93.44	676.0
93.45	662.0
93.46	656.0
93.47	673.0
93.48	659.0
93.49	633.0
93.5	641.0
93.51	659.0
93.52	653.0
93.53	647.0
93.54	671.0
93.55	688.0
93.56	672.0
93.57	671.0
93.58	655.0
93.59	640.0
93.6	640.0
93.61	645.0
93.62	645.0
93.63	640.0
93.64	668.0
93.65	684.0
93.66	651.0
93.67	628.0
93.68	645.0
93.69	653.0
93.7	649.0
93.71	672.0
93.72	684.0
93.73	677.0
93.74	670.0
93.75	676.0
93.76	665.0
93.77	641.0
93.78	642.0
93.79	659.0
93.8	649.0
93.81	659.0
93.82	694.0
93.83	677.0
93.84	661.0
93.85	681.0
93.86	667.0
93.87	633.0
93.88	642.0
93.89	681.0
93.9	681.0
93.91	667.0
93.92	676.0
93.93	693.0
93.94	690.0
93.95	680.0
93.96	678.0
93.97	690.0
93.98	709.0
93.99	717.0
94.0	694.0
94.01	692.0
94.02	722.0
94.03	706.0
94.04	662.0
94.05	665.0
94.06	685.0
94.07	676.0
94.08	648.0
94.09	664.0
94.1	704.0
94.11	697.0
94.12	695.0
94.13	703.0
94.14	703.0
94.15	714.0
94.16	732.0
94.17	733.0
94.18	704.0
94.19	719.0
94.2	748.0
94.21	755.0
94.22	723.0
94.23	715.0
94.24	743.0
94.25	779.0
94.26	799.0
94.27	790.0
94.28	802.0
94.29	801.0
94.3	798.0
94.31	817.0
94.32	823.0
94.33	806.0
94.34	789.0
94.35	807.0
94.36	832.0
94.37	824.0
94.38	845.0
94.39	829.0
94.4	809.0
94.41	813.0
94.42	822.0
94.43	835.0
94.44	839.0
94.45	848.0
94.46	855.0
94.47	848.0
94.48	840.0
94.49	863.0
94.5	888.0
94.51	871.0
94.52	871.0
94.53	889.0
94.54	897.0
94.55	882.0
94.56	858.0
94.57	867.0
94.58	881.0
94.59	893.0
94.6	887.0
94.61	874.0
94.62	877.0
94.63	883.0
94.64	868.0
94.65	854.0
94.66	866.0
94.67	879.0
94.68	878.0
94.69	860.0
94.7	883.0
94.71	899.0
94.72	891.0
94.73	864.0
94.74	851.0
94.75	845.0
94.76	837.0
94.77	826.0
94.78	852.0
94.79	859.0
94.8	833.0
94.81	825.0
94.82	841.0
94.83	830.0
94.84	825.0
94.85	826.0
94.86	824.0
94.87	807.0
94.88	800.0
94.89	825.0
94.9	828.0
94.91	821.0
94.92	778.0
94.93	781.0
94.94	779.0
94.95	785.0
94.96	781.0
94.97	795.0
94.98	758.0
94.99	755.0
95.0	763.0
95.01	775.0
95.02	784.0
95.03	773.0
95.04	755.0
95.05	732.0
95.06	730.0
95.07	756.0
95.08	753.0
95.09	744.0
95.1	738.0
95.11	718.0
95.12	712.0
95.13	741.0
95.14	731.0
95.15	727.0
95.16	735.0
95.17	727.0
95.18	731.0
95.19	713.0
95.2	691.0
95.21	731.0
95.22	719.0
95.23	712.0
95.24	723.0
95.25	705.0
95.26	688.0
95.27	673.0
95.28	675.0
95.29	692.0
95.3	668.0
95.31	675.0
95.32	703.0
95.33	699.0
95.34	706.0
95.35	721.0
95.36	695.0
95.37	700.0
95.38	705.0
95.39	708.0
95.4	708.0
95.41	704.0
95.42	692.0
95.43	693.0
95.44	677.0
95.45	681.0
95.46	682.0
95.47	684.0
95.48	699.0
95.49	682.0
95.5	693.0
95.51	681.0
95.52	666.0
95.53	676.0
95.54	697.0
95.55	686.0
95.56	658.0
95.57	650.0
95.58	699.0
95.59	706.0
95.6	695.0
95.61	677.0
95.62	673.0
95.63	666.0
95.64	672.0
95.65	685.0
95.66	686.0
95.67	689.0
95.68	686.0
95.69	695.0
95.7	700.0
95.71	691.0
95.72	709.0
95.73	708.0
95.74	711.0
95.75	702.0
95.76	671.0
95.77	691.0
95.78	681.0
95.79	665.0
95.8	654.0
95.81	677.0
95.82	682.0
95.83	653.0
95.84	652.0
95.85	667.0
95.86	677.0
95.87	659.0
95.88	664.0
95.89	684.0
95.9	690.0
95.91	691.0
95.92	676.0
95.93	688.0
95.94	669.0
95.95	653.0
95.96	665.0
95.97	653.0
95.98	636.0
95.99	659.0
96.0	676.0
96.01	688.0
96.02	645.0
96.03	692.0
96.04	684.0
96.05	673.0
96.06	656.0
96.07	641.0
96.08	637.0
96.09	642.0
96.1	652.0
96.11	648.0
96.12	678.0
96.13	668.0
96.14	678.0
96.15	676.0
96.16	658.0
96.17	651.0
96.18	662.0
96.19	684.0
96.2	686.0
96.21	673.0
96.22	651.0
96.23	684.0
96.24	682.0
96.25	689.0
96.26	676.0
96.27	665.0
96.28	670.0
96.29	653.0
96.3	669.0
96.31	671.0
96.32	661.0
96.33	659.0
96.34	699.0
96.35	713.0
96.36	662.0
96.37	672.0
96.38	712.0
96.39	687.0
96.4	646.0
96.41	661.0
96.42	671.0
96.43	633.0
96.44	661.0
96.45	674.0
96.46	665.0
96.47	669.0
96.48	671.0
96.49	679.0
96.5	649.0
96.51	654.0
96.52	685.0
96.53	689.0
96.54	670.0
96.55	672.0
96.56	701.0
96.57	697.0
96.58	663.0
96.59	673.0
96.6	694.0
96.61	691.0
96.62	650.0
96.63	664.0
96.64	654.0
96.65	663.0
96.66	663.0
96.67	687.0
96.68	672.0
96.69	647.0
96.7	668.0
96.71	676.0
96.72	667.0
96.73	658.0
96.74	668.0
96.75	651.0
96.76	666.0
96.77	681.0
96.78	675.0
96.79	650.0
96.8	653.0
96.81	679.0
96.82	658.0
96.83	685.0
96.84	674.0
96.85	649.0
96.86	634.0
96.87	628.0
96.88	651.0
96.89	667.0
96.9	666.0
96.91	660.0
96.92	666.0
96.93	657.0
96.94	643.0
96.95	658.0
96.96	670.0
96.97	661.0
96.98	648.0
96.99	665.0
97.0	686.0
97.01	693.0
97.02	683.0
97.03	670.0
97.04	700.0
97.05	712.0
97.06	713.0
97.07	709.0
97.08	683.0
97.09	643.0
97.1	649.0
97.11	672.0
97.12	660.0
97.13	665.0
97.14	671.0
97.15	637.0
97.16	628.0
97.17	629.0
97.18	636.0
97.19	650.0
97.2	654.0
97.21	670.0
97.22	666.0
97.23	666.0
97.24	673.0
97.25	685.0
97.26	683.0
97.27	670.0
97.28	662.0
97.29	654.0
97.3	660.0
97.31	667.0
97.32	667.0
97.33	637.0
97.34	634.0
97.35	649.0
97.36	639.0
97.37	658.0
97.38	659.0
97.39	658.0
97.4	652.0
97.41	646.0
97.42	658.0
97.43	651.0
97.44	671.0
97.45	681.0
97.46	652.0
97.47	651.0
97.48	665.0
97.49	642.0
97.5	633.0
97.51	652.0
97.52	662.0
97.53	639.0
97.54	640.0
97.55	664.0
97.56	660.0
97.57	658.0
97.58	659.0
97.59	633.0
97.6	593.0
97.61	607.0
97.62	680.0
97.63	697.0
97.64	660.0
97.65	685.0
97.66	685.0
97.67	652.0
97.68	674.0
97.69	701.0
97.7	669.0
97.71	669.0
97.72	672.0
97.73	701.0
97.74	688.0
97.75	656.0
97.76	649.0
97.77	641.0
97.78	653.0
97.79	638.0
97.8	652.0
97.81	684.0
97.82	681.0
97.83	665.0
97.84	670.0
97.85	663.0
97.86	675.0
97.87	677.0
97.88	664.0
97.89	658.0
97.9	630.0
97.91	646.0
97.92	665.0
97.93	668.0
97.94	660.0
97.95	662.0
97.96	684.0
97.97	665.0
97.98	667.0
97.99	658.0
98.0	653.0
98.01	687.0
98.02	679.0
98.03	668.0
98.04	652.0
98.05	679.0
98.06	640.0
98.07	635.0
98.08	664.0
98.09	668.0
98.1	637.0
98.11	644.0
98.12	647.0
98.13	654.0
98.14	668.0
98.15	673.0
98.16	641.0
98.17	664.0
98.18	679.0
98.19	684.0
98.2	691.0
98.21	674.0
98.22	654.0
98.23	659.0
98.24	659.0
98.25	674.0
98.26	691.0
98.27	673.0
98.28	649.0
98.29	650.0
98.3	650.0
98.31	666.0
98.32	687.0
98.33	668.0
98.34	640.0
98.35	658.0
98.36	667.0
98.37	655.0
98.38	668.0
98.39	671.0
98.4	650.0
98.41	648.0
98.42	653.0
98.43	679.0
98.44	660.0
98.45	652.0
98.46	669.0
98.47	655.0
98.48	659.0
98.49	660.0
98.5	657.0
98.51	656.0
98.52	683.0
98.53	676.0
98.54	666.0
98.55	650.0
98.56	651.0
98.57	660.0
98.58	660.0
98.59	630.0
98.6	631.0
98.61	631.0
98.62	657.0
98.63	663.0
98.64	633.0
98.65	640.0
98.66	658.0
98.67	680.0
98.68	665.0
98.69	672.0
98.7	642.0
98.71	676.0
98.72	671.0
98.73	659.0
98.74	664.0
98.75	673.0
98.76	656.0
98.77	671.0
98.78	707.0
98.79	707.0
98.8	655.0
98.81	630.0
98.82	659.0
98.83	663.0
98.84	669.0
98.85	675.0
98.86	672.0
98.87	673.0
98.88	647.0
98.89	686.0
98.9	669.0
98.91	640.0
98.92	666.0
98.93	637.0
98.94	638.0
98.95	641.0
98.96	693.0
98.97	657.0
98.98	634.0
98.99	669.0
99.0	657.0
99.01	648.0
99.02	647.0
99.03	648.0
99.04	636.0
99.05	656.0
99.06	687.0
99.07	656.0
99.08	643.0
99.09	649.0
99.1	614.0
99.11	648.0
99.12	642.0
99.13	649.0
99.14	661.0
99.15	693.0
99.16	655.0
99.17	654.0
99.18	685.0
99.19	663.0
99.2	628.0
99.21	627.0
99.22	635.0
99.23	658.0
99.24	673.0
99.25	673.0
99.26	667.0
99.27	679.0
99.28	694.0
99.29	656.0
99.3	631.0
99.31	660.0
99.32	696.0
99.33	685.0
99.34	662.0
99.35	694.0
99.36	638.0
99.37	660.0
99.38	680.0
99.39	700.0
99.4	674.0
99.41	650.0
99.42	685.0
99.43	679.0
99.44	639.0
99.45	652.0
99.46	661.0
99.47	674.0
99.48	677.0
99.49	651.0
99.5	646.0
99.51	636.0
99.52	631.0
99.53	656.0
99.54	683.0
99.55	658.0
99.56	633.0
99.57	635.0
99.58	655.0
99.59	679.0
99.6	651.0
99.61	654.0
99.62	670.0
99.63	669.0
99.64	669.0
99.65	652.0
99.66	682.0
99.67	687.0
99.68	696.0
99.69	690.0
99.7	659.0
99.71	669.0
99.72	664.0
99.73	653.0
99.74	649.0
99.75	654.0
99.76	681.0
99.77	657.0
99.78	663.0
99.79	671.0
99.8	671.0
99.81	667.0
99.82	713.0
99.83	674.0
99.84	629.0
99.85	649.0
99.86	664.0
99.87	682.0
99.88	705.0
99.89	685.0
99.9	664.0
99.91	643.0
99.92	673.0
99.93	670.0
99.94	645.0
99.95	674.0
99.96	675.0
99.97	668.0
99.98	688.0
99.99	653.0
100.0	674.0
