Offstoi_LiMnTiO4_950
Wavelength = 1.54059 Ã… (Cu)
10.0	1724.0
10.01	1726.0
10.02	1724.0
10.03	1721.0
10.04	1712.0
10.05	1702.0
10.06	1668.0
10.07	1698.0
10.08	1728.0
10.09	1723.0
10.1	1695.0
10.11	1697.0
10.12	1727.0
10.13	1764.0
10.14	1761.0
10.15	1738.0
10.16	1768.0
10.17	1728.0
10.18	1745.0
10.19	1762.0
10.2	1713.0
10.21	1706.0
10.22	1673.0
10.23	1739.0
10.24	1765.0
10.25	1725.0
10.26	1744.0
10.27	1694.0
10.28	1710.0
10.29	1739.0
10.3	1783.0
10.31	1737.0
10.32	1740.0
10.33	1769.0
10.34	1754.0
10.35	1747.0
10.36	1725.0
10.37	1762.0
10.38	1735.0
10.39	1715.0
10.4	1775.0
10.41	1780.0
10.42	1727.0
10.43	1758.0
10.44	1795.0
10.45	1782.0
10.46	1745.0
10.47	1764.0
10.48	1736.0
10.49	1730.0
10.5	1715.0
10.51	1711.0
10.52	1696.0
10.53	1711.0
10.54	1792.0
10.55	1784.0
10.56	1780.0
10.57	1782.0
10.58	1758.0
10.59	1760.0
10.6	1741.0
10.61	1788.0
10.62	1821.0
10.63	1806.0
10.64	1779.0
10.65	1733.0
10.66	1756.0
10.67	1767.0
10.68	1710.0
10.69	1767.0
10.7	1783.0
10.71	1796.0
10.72	1774.0
10.73	1792.0
10.74	1746.0
10.75	1788.0
10.76	1778.0
10.77	1773.0
10.78	1788.0
10.79	1832.0
10.8	1833.0
10.81	1815.0
10.82	1787.0
10.83	1819.0
10.84	1845.0
10.85	1839.0
10.86	1795.0
10.87	1760.0
10.88	1742.0
10.89	1758.0
10.9	1738.0
10.91	1757.0
10.92	1766.0
10.93	1774.0
10.94	1806.0
10.95	1812.0
10.96	1837.0
10.97	1816.0
10.98	1821.0
10.99	1775.0
11.0	1747.0
11.01	1783.0
11.02	1789.0
11.03	1751.0
11.04	1798.0
11.05	1858.0
11.06	1846.0
11.07	1817.0
11.08	1807.0
11.09	1832.0
11.1	1845.0
11.11	1813.0
11.12	1823.0
11.13	1765.0
11.14	1835.0
11.15	1784.0
11.16	1778.0
11.17	1809.0
11.18	1836.0
11.19	1805.0
11.2	1760.0
11.21	1849.0
11.22	1776.0
11.23	1737.0
11.24	1742.0
11.25	1802.0
11.26	1825.0
11.27	1847.0
11.28	1838.0
11.29	1815.0
11.3	1851.0
11.31	1836.0
11.32	1845.0
11.33	1786.0
11.34	1787.0
11.35	1789.0
11.36	1806.0
11.37	1817.0
11.38	1855.0
11.39	1868.0
11.4	1799.0
11.41	1832.0
11.42	1870.0
11.43	1853.0
11.44	1885.0
11.45	1849.0
11.46	1870.0
11.47	1875.0
11.48	1836.0
11.49	1849.0
11.5	1872.0
11.51	1875.0
11.52	1868.0
11.53	1850.0
11.54	1841.0
11.55	1872.0
11.56	1863.0
11.57	1866.0
11.58	1843.0
11.59	1857.0
11.6	1843.0
11.61	1880.0
11.62	1852.0
11.63	1813.0
11.64	1876.0
11.65	1895.0
11.66	1841.0
11.67	1845.0
11.68	1881.0
11.69	1886.0
11.7	1902.0
11.71	1905.0
11.72	1902.0
11.73	1862.0
11.74	1831.0
11.75	1921.0
11.76	1810.0
11.77	1819.0
11.78	1853.0
11.79	1843.0
11.8	1907.0
11.81	1911.0
11.82	1862.0
11.83	1836.0
11.84	1885.0
11.85	1892.0
11.86	1962.0
11.87	1932.0
11.88	1866.0
11.89	1887.0
11.9	1915.0
11.91	1950.0
11.92	1925.0
11.93	1864.0
11.94	1878.0
11.95	1889.0
11.96	1819.0
11.97	1818.0
11.98	1915.0
11.99	1898.0
12.0	1948.0
12.01	1944.0
12.02	1898.0
12.03	1862.0
12.04	1829.0
12.05	1868.0
12.06	1848.0
12.07	1900.0
12.08	1950.0
12.09	1992.0
12.1	1959.0
12.11	1947.0
12.12	1953.0
12.13	1915.0
12.14	1871.0
12.15	1832.0
12.16	1865.0
12.17	1966.0
12.18	1887.0
12.19	1868.0
12.2	1912.0
12.21	1905.0
12.22	1955.0
12.23	1873.0
12.24	1880.0
12.25	1924.0
12.26	1937.0
12.27	1964.0
12.28	1908.0
12.29	1843.0
12.3	1872.0
12.31	1898.0
12.32	1931.0
12.33	1926.0
12.34	1907.0
12.35	1901.0
12.36	1909.0
12.37	1915.0
12.38	1987.0
12.39	1949.0
12.4	1915.0
12.41	1941.0
12.42	1965.0
12.43	1983.0
12.44	1931.0
12.45	1927.0
12.46	1874.0
12.47	1904.0
12.48	1931.0
12.49	1896.0
12.5	1914.0
12.51	1950.0
12.52	1999.0
12.53	1961.0
12.54	1930.0
12.55	1985.0
12.56	1971.0
12.57	1943.0
12.58	1919.0
12.59	1934.0
12.6	1950.0
12.61	1979.0
12.62	1986.0
12.63	1947.0
12.64	1956.0
12.65	1962.0
12.66	1909.0
12.67	1918.0
12.68	1947.0
12.69	1954.0
12.7	1948.0
12.71	1927.0
12.72	1939.0
12.73	1980.0
12.74	1932.0
12.75	1938.0
12.76	1981.0
12.77	1951.0
12.78	1955.0
12.79	1968.0
12.8	1957.0
12.81	1936.0
12.82	1946.0
12.83	1913.0
12.84	1917.0
12.85	1958.0
12.86	1987.0
12.87	1951.0
12.88	1955.0
12.89	1998.0
12.9	1964.0
12.91	1963.0
12.92	1961.0
12.93	1961.0
12.94	1935.0
12.95	1998.0
12.96	2012.0
12.97	2013.0
12.98	2005.0
12.99	1988.0
13.0	1933.0
13.01	1896.0
13.02	1918.0
13.03	1909.0
13.04	1939.0
13.05	1958.0
13.06	1967.0
13.07	1930.0
13.08	1952.0
13.09	1960.0
13.1	1990.0
13.11	2001.0
13.12	1950.0
13.13	1938.0
13.14	2014.0
13.15	1985.0
13.16	1996.0
13.17	2016.0
13.18	1977.0
13.19	1933.0
13.2	1948.0
13.21	1952.0
13.22	1953.0
13.23	1964.0
13.24	2022.0
13.25	2024.0
13.26	2025.0
13.27	2008.0
13.28	2031.0
13.29	2009.0
13.3	1986.0
13.31	1991.0
13.32	1952.0
13.33	1942.0
13.34	1952.0
13.35	1960.0
13.36	1955.0
13.37	1966.0
13.38	1977.0
13.39	1947.0
13.4	1953.0
13.41	1986.0
13.42	1990.0
13.43	1988.0
13.44	1991.0
13.45	1948.0
13.46	1949.0
13.47	1999.0
13.48	1967.0
13.49	1986.0
13.5	1975.0
13.51	1948.0
13.52	1979.0
13.53	2014.0
13.54	1987.0
13.55	1992.0
13.56	1982.0
13.57	1932.0
13.58	1908.0
13.59	1956.0
13.6	1984.0
13.61	2005.0
13.62	1983.0
13.63	2006.0
13.64	2052.0
13.65	2043.0
13.66	1995.0
13.67	1963.0
13.68	1972.0
13.69	1996.0
13.7	2025.0
13.71	2016.0
13.72	2014.0
13.73	1953.0
13.74	1900.0
13.75	1975.0
13.76	2005.0
13.77	1967.0
13.78	1991.0
13.79	1990.0
13.8	2001.0
13.81	2032.0
13.82	2031.0
13.83	2027.0
13.84	2023.0
13.85	1967.0
13.86	1991.0
13.87	1990.0
13.88	2025.0
13.89	1998.0
13.9	2017.0
13.91	2050.0
13.92	2028.0
13.93	2012.0
13.94	2033.0
13.95	2059.0
13.96	2024.0
13.97	2031.0
13.98	2041.0
13.99	2004.0
14.0	2021.0
14.01	2006.0
14.02	2015.0
14.03	2052.0
14.04	2036.0
14.05	1984.0
14.06	1967.0
14.07	1961.0
14.08	1970.0
14.09	2051.0
14.1	2101.0
14.11	2020.0
14.12	2019.0
14.13	2076.0
14.14	2083.0
14.15	2043.0
14.16	1997.0
14.17	2006.0
14.18	2058.0
14.19	2055.0
14.2	2020.0
14.21	1967.0
14.22	2007.0
14.23	2048.0
14.24	2047.0
14.25	2039.0
14.26	2089.0
14.27	2120.0
14.28	2064.0
14.29	2039.0
14.3	2058.0
14.31	2039.0
14.32	2035.0
14.33	2076.0
14.34	2032.0
14.35	2017.0
14.36	2028.0
14.37	2037.0
14.38	2021.0
14.39	2061.0
14.4	1998.0
14.41	1984.0
14.42	2062.0
14.43	2094.0
14.44	2046.0
14.45	2019.0
14.46	2041.0
14.47	2046.0
14.48	2031.0
14.49	2006.0
14.5	2016.0
14.51	2045.0
14.52	2066.0
14.53	2084.0
14.54	2128.0
14.55	2094.0
14.56	2058.0
14.57	2082.0
14.58	2000.0
14.59	2014.0
14.6	2014.0
14.61	2001.0
14.62	2015.0
14.63	2058.0
14.64	2083.0
14.65	2117.0
14.66	2097.0
14.67	2059.0
14.68	2033.0
14.69	2029.0
14.7	2030.0
14.71	2022.0
14.72	2074.0
14.73	2056.0
14.74	2066.0
14.75	2094.0
14.76	2070.0
14.77	2086.0
14.78	2110.0
14.79	2109.0
14.8	2064.0
14.81	2031.0
14.82	2060.0
14.83	2052.0
14.84	2045.0
14.85	2049.0
14.86	2055.0
14.87	2066.0
14.88	2106.0
14.89	2114.0
14.9	2087.0
14.91	2097.0
14.92	2135.0
14.93	2137.0
14.94	2087.0
14.95	2098.0
14.96	2089.0
14.97	2101.0
14.98	2131.0
14.99	2061.0
15.0	2017.0
15.01	2064.0
15.02	2053.0
15.03	2057.0
15.04	2019.0
15.05	1997.0
15.06	2054.0
15.07	2108.0
15.08	2116.0
15.09	2090.0
15.1	2086.0
15.11	2071.0
15.12	2042.0
15.13	2070.0
15.14	2078.0
15.15	2092.0
15.16	2074.0
15.17	2031.0
15.18	2009.0
15.19	2025.0
15.2	2020.0
15.21	1971.0
15.22	1976.0
15.23	2001.0
15.24	2046.0
15.25	2047.0
15.26	2024.0
15.27	1985.0
15.28	1986.0
15.29	2025.0
15.3	2006.0
15.31	1960.0
15.32	1955.0
15.33	1978.0
15.34	2044.0
15.35	2033.0
15.36	2034.0
15.37	2000.0
15.38	1969.0
15.39	2004.0
15.4	2019.0
15.41	2009.0
15.42	1978.0
15.43	1981.0
15.44	2013.0
15.45	1982.0
15.46	1972.0
15.47	1997.0
15.48	2034.0
15.49	2009.0
15.5	1986.0
15.51	1964.0
15.52	1954.0
15.53	1962.0
15.54	1974.0
15.55	1991.0
15.56	1998.0
15.57	1988.0
15.58	2007.0
15.59	1973.0
15.6	1919.0
15.61	1914.0
15.62	1989.0
15.63	1998.0
15.64	1968.0
15.65	1977.0
15.66	1969.0
15.67	1993.0
15.68	1992.0
15.69	1946.0
15.7	1970.0
15.71	1980.0
15.72	1961.0
15.73	1962.0
15.74	1965.0
15.75	1987.0
15.76	2010.0
15.77	2000.0
15.78	1980.0
15.79	1985.0
15.8	2001.0
15.81	2011.0
15.82	1995.0
15.83	1990.0
15.84	1969.0
15.85	1957.0
15.86	1972.0
15.87	1957.0
15.88	1924.0
15.89	1920.0
15.9	1943.0
15.91	1954.0
15.92	1940.0
15.93	1917.0
15.94	1955.0
15.95	1990.0
15.96	1994.0
15.97	1999.0
15.98	1977.0
15.99	1987.0
16.0	1984.0
16.01	1962.0
16.02	1936.0
16.03	1927.0
16.04	1931.0
16.05	1934.0
16.06	1970.0
16.07	1970.0
16.08	1961.0
16.09	1969.0
16.1	1951.0
16.11	1991.0
16.12	2009.0
16.13	1982.0
16.14	1946.0
16.15	1939.0
16.16	1960.0
16.17	1969.0
16.18	1918.0
16.19	1901.0
16.2	1941.0
16.21	1940.0
16.22	1953.0
16.23	1975.0
16.24	1978.0
16.25	1968.0
16.26	1951.0
16.27	1986.0
16.28	2000.0
16.29	1958.0
16.3	1914.0
16.31	1924.0
16.32	1982.0
16.33	1994.0
16.34	1977.0
16.35	1927.0
16.36	1896.0
16.37	1923.0
16.38	1953.0
16.39	1954.0
16.4	1964.0
16.41	1944.0
16.42	1932.0
16.43	1956.0
16.44	1949.0
16.45	1951.0
16.46	1966.0
16.47	1946.0
16.48	1934.0
16.49	1971.0
16.5	1977.0
16.51	1928.0
16.52	1897.0
16.53	1887.0
16.54	1879.0
16.55	1906.0
16.56	1988.0
16.57	2012.0
16.58	1975.0
16.59	1954.0
16.6	1934.0
16.61	1920.0
16.62	1939.0
16.63	1907.0
16.64	1905.0
16.65	1920.0
16.66	1926.0
16.67	1977.0
16.68	1949.0
16.69	1950.0
16.7	1998.0
16.71	1994.0
16.72	1943.0
16.73	1939.0
16.74	1935.0
16.75	1914.0
16.76	1922.0
16.77	1932.0
16.78	1911.0
16.79	1903.0
16.8	1901.0
16.81	1909.0
16.82	1928.0
16.83	1921.0
16.84	1868.0
16.85	1906.0
16.86	1954.0
16.87	1965.0
16.88	2013.0
16.89	1983.0
16.9	1889.0
16.91	1861.0
16.92	1908.0
16.93	1900.0
16.94	1862.0
16.95	1881.0
16.96	1934.0
16.97	1952.0
16.98	1964.0
16.99	1966.0
17.0	1933.0
17.01	1915.0
17.02	1916.0
17.03	1930.0
17.04	1905.0
17.05	1888.0
17.06	1916.0
17.07	1883.0
17.08	1868.0
17.09	1881.0
17.1	1877.0
17.11	1887.0
17.12	1907.0
17.13	1920.0
17.14	1919.0
17.15	1909.0
17.16	1914.0
17.17	1897.0
17.18	1868.0
17.19	1886.0
17.2	1939.0
17.21	1952.0
17.22	1898.0
17.23	1880.0
17.24	1899.0
17.25	1919.0
17.26	1933.0
17.27	1933.0
17.28	1933.0
17.29	1917.0
17.3	1882.0
17.31	1868.0
17.32	1873.0
17.33	1894.0
17.34	1926.0
17.35	1919.0
17.36	1906.0
17.37	1896.0
17.38	1880.0
17.39	1905.0
17.4	1912.0
17.41	1901.0
17.42	1909.0
17.43	1882.0
17.44	1874.0
17.45	1915.0
17.46	1912.0
17.47	1893.0
17.48	1899.0
17.49	1911.0
17.5	1911.0
17.51	1899.0
17.52	1909.0
17.53	1916.0
17.54	1872.0
17.55	1850.0
17.56	1867.0
17.57	1869.0
17.58	1883.0
17.59	1889.0
17.6	1897.0
17.61	1915.0
17.62	1909.0
17.63	1901.0
17.64	1917.0
17.65	1929.0
17.66	1934.0
17.67	1921.0
17.68	1874.0
17.69	1867.0
17.7	1894.0
17.71	1883.0
17.72	1900.0
17.73	1901.0
17.74	1890.0
17.75	1899.0
17.76	1886.0
17.77	1921.0
17.78	1945.0
17.79	1930.0
17.8	1894.0
17.81	1878.0
17.82	1933.0
17.83	1974.0
17.84	1956.0
17.85	1945.0
17.86	1968.0
17.87	1986.0
17.88	1957.0
17.89	1929.0
17.9	1922.0
17.91	1902.0
17.92	1914.0
17.93	1962.0
17.94	1989.0
17.95	2010.0
17.96	2002.0
17.97	1980.0
17.98	1999.0
17.99	2003.0
18.0	1981.0
18.01	1973.0
18.02	1980.0
18.03	2013.0
18.04	2033.0
18.05	2001.0
18.06	1990.0
18.07	2020.0
18.08	2059.0
18.09	2073.0
18.1	2090.0
18.11	2103.0
18.12	2101.0
18.13	2172.0
18.14	2213.0
18.15	2195.0
18.16	2218.0
18.17	2251.0
18.18	2318.0
18.19	2357.0
18.2	2407.0
18.21	2499.0
18.22	2565.0
18.23	2626.0
18.24	2719.0
18.25	2845.0
18.26	2965.0
18.27	3079.0
18.28	3264.0
18.29	3493.0
18.3	3715.0
18.31	3905.0
18.32	4158.0
18.33	4554.0
18.34	4954.0
18.35	5327.0
18.36	5758.0
18.37	6196.0
18.38	6546.0
18.39	6696.0
18.4	6663.0
18.41	6479.0
18.42	6018.0
18.43	5515.0
18.44	5060.0
18.45	4530.0
18.46	4002.0
18.47	3508.0
18.48	3103.0
18.49	2802.0
18.5	2650.0
18.51	2526.0
18.52	2400.0
18.53	2293.0
18.54	2188.0
18.55	2172.0
18.56	2160.0
18.57	2105.0
18.58	2108.0
18.59	2137.0
18.6	2128.0
18.61	2099.0
18.62	2074.0
18.63	2062.0
18.64	2040.0
18.65	2012.0
18.66	2050.0
18.67	2056.0
18.68	2007.0
18.69	1978.0
18.7	1983.0
18.71	2021.0
18.72	2019.0
18.73	1978.0
18.74	1962.0
18.75	1944.0
18.76	1944.0
18.77	1919.0
18.78	1887.0
18.79	1905.0
18.8	1922.0
18.81	1914.0
18.82	1894.0
18.83	1912.0
18.84	1951.0
18.85	1906.0
18.86	1884.0
18.87	1885.0
18.88	1883.0
18.89	1903.0
18.9	1863.0
18.91	1849.0
18.92	1873.0
18.93	1896.0
18.94	1891.0
18.95	1862.0
18.96	1857.0
18.97	1893.0
18.98	1916.0
18.99	1906.0
19.0	1899.0
19.01	1880.0
19.02	1923.0
19.03	1889.0
19.04	1857.0
19.05	1881.0
19.06	1917.0
19.07	1857.0
19.08	1818.0
19.09	1839.0
19.1	1857.0
19.11	1876.0
19.12	1891.0
19.13	1885.0
19.14	1878.0
19.15	1861.0
19.16	1859.0
19.17	1867.0
19.18	1827.0
19.19	1829.0
19.2	1852.0
19.21	1876.0
19.22	1872.0
19.23	1858.0
19.24	1847.0
19.25	1845.0
19.26	1865.0
19.27	1874.0
19.28	1870.0
19.29	1843.0
19.3	1791.0
19.31	1804.0
19.32	1802.0
19.33	1809.0
19.34	1811.0
19.35	1796.0
19.36	1827.0
19.37	1845.0
19.38	1787.0
19.39	1771.0
19.4	1799.0
19.41	1802.0
19.42	1804.0
19.43	1797.0
19.44	1815.0
19.45	1843.0
19.46	1852.0
19.47	1829.0
19.48	1815.0
19.49	1800.0
19.5	1808.0
19.51	1832.0
19.52	1808.0
19.53	1807.0
19.54	1799.0
19.55	1837.0
19.56	1848.0
19.57	1823.0
19.58	1825.0
19.59	1811.0
19.6	1776.0
19.61	1753.0
19.62	1784.0
19.63	1790.0
19.64	1805.0
19.65	1794.0
19.66	1792.0
19.67	1783.0
19.68	1800.0
19.69	1773.0
19.7	1758.0
19.71	1788.0
19.72	1814.0
19.73	1788.0
19.74	1772.0
19.75	1756.0
19.76	1726.0
19.77	1746.0
19.78	1784.0
19.79	1778.0
19.8	1787.0
19.81	1769.0
19.82	1760.0
19.83	1788.0
19.84	1804.0
19.85	1778.0
19.86	1755.0
19.87	1754.0
19.88	1701.0
19.89	1711.0
19.9	1746.0
19.91	1734.0
19.92	1710.0
19.93	1747.0
19.94	1770.0
19.95	1736.0
19.96	1717.0
19.97	1747.0
19.98	1765.0
19.99	1780.0
20.0	1776.0
20.01	1775.0
20.02	1788.0
20.03	1733.0
20.04	1703.0
20.05	1691.0
20.06	1735.0
20.07	1757.0
20.08	1727.0
20.09	1727.0
20.1	1754.0
20.11	1789.0
20.12	1785.0
20.13	1770.0
20.14	1692.0
20.15	1698.0
20.16	1688.0
20.17	1672.0
20.18	1711.0
20.19	1721.0
20.2	1736.0
20.21	1734.0
20.22	1717.0
20.23	1706.0
20.24	1697.0
20.25	1665.0
20.26	1677.0
20.27	1702.0
20.28	1693.0
20.29	1683.0
20.3	1698.0
20.31	1726.0
20.32	1711.0
20.33	1722.0
20.34	1698.0
20.35	1741.0
20.36	1767.0
20.37	1718.0
20.38	1670.0
20.39	1701.0
20.4	1708.0
20.41	1664.0
20.42	1696.0
20.43	1698.0
20.44	1655.0
20.45	1651.0
20.46	1718.0
20.47	1714.0
20.48	1721.0
20.49	1727.0
20.5	1717.0
20.51	1728.0
20.52	1764.0
20.53	1757.0
20.54	1695.0
20.55	1676.0
20.56	1719.0
20.57	1712.0
20.58	1662.0
20.59	1676.0
20.6	1709.0
20.61	1687.0
20.62	1674.0
20.63	1684.0
20.64	1645.0
20.65	1632.0
20.66	1609.0
20.67	1632.0
20.68	1635.0
20.69	1656.0
20.7	1672.0
20.71	1641.0
20.72	1638.0
20.73	1706.0
20.74	1679.0
20.75	1618.0
20.76	1637.0
20.77	1656.0
20.78	1670.0
20.79	1664.0
20.8	1651.0
20.81	1653.0
20.82	1624.0
20.83	1640.0
20.84	1688.0
20.85	1679.0
20.86	1685.0
20.87	1672.0
20.88	1678.0
20.89	1700.0
20.9	1643.0
20.91	1645.0
20.92	1705.0
20.93	1666.0
20.94	1642.0
20.95	1659.0
20.96	1628.0
20.97	1587.0
20.98	1613.0
20.99	1607.0
21.0	1631.0
21.01	1682.0
21.02	1654.0
21.03	1598.0
21.04	1620.0
21.05	1659.0
21.06	1672.0
21.07	1635.0
21.08	1581.0
21.09	1578.0
21.1	1621.0
21.11	1633.0
21.12	1621.0
21.13	1642.0
21.14	1686.0
21.15	1660.0
21.16	1628.0
21.17	1653.0
21.18	1647.0
21.19	1636.0
21.2	1610.0
21.21	1623.0
21.22	1623.0
21.23	1576.0
21.24	1584.0
21.25	1617.0
21.26	1619.0
21.27	1617.0
21.28	1630.0
21.29	1651.0
21.3	1615.0
21.31	1582.0
21.32	1599.0
21.33	1622.0
21.34	1591.0
21.35	1587.0
21.36	1617.0
21.37	1618.0
21.38	1588.0
21.39	1607.0
21.4	1624.0
21.41	1609.0
21.42	1574.0
21.43	1571.0
21.44	1635.0
21.45	1601.0
21.46	1604.0
21.47	1628.0
21.48	1614.0
21.49	1645.0
21.5	1610.0
21.51	1551.0
21.52	1580.0
21.53	1538.0
21.54	1577.0
21.55	1583.0
21.56	1605.0
21.57	1665.0
21.58	1593.0
21.59	1575.0
21.6	1564.0
21.61	1581.0
21.62	1617.0
21.63	1592.0
21.64	1593.0
21.65	1566.0
21.66	1588.0
21.67	1575.0
21.68	1573.0
21.69	1573.0
21.7	1581.0
21.71	1565.0
21.72	1578.0
21.73	1583.0
21.74	1556.0
21.75	1579.0
21.76	1553.0
21.77	1591.0
21.78	1494.0
21.79	1533.0
21.8	1555.0
21.81	1542.0
21.82	1582.0
21.83	1584.0
21.84	1598.0
21.85	1570.0
21.86	1581.0
21.87	1604.0
21.88	1603.0
21.89	1575.0
21.9	1568.0
21.91	1578.0
21.92	1550.0
21.93	1547.0
21.94	1528.0
21.95	1542.0
21.96	1554.0
21.97	1563.0
21.98	1552.0
21.99	1491.0
22.0	1539.0
22.01	1626.0
22.02	1607.0
22.03	1530.0
22.04	1534.0
22.05	1559.0
22.06	1576.0
22.07	1544.0
22.08	1514.0
22.09	1522.0
22.1	1539.0
22.11	1584.0
22.12	1562.0
22.13	1554.0
22.14	1604.0
22.15	1576.0
22.16	1547.0
22.17	1594.0
22.18	1550.0
22.19	1486.0
22.2	1526.0
22.21	1553.0
22.22	1550.0
22.23	1545.0
22.24	1565.0
22.25	1597.0
22.26	1599.0
22.27	1555.0
22.28	1525.0
22.29	1514.0
22.3	1535.0
22.31	1534.0
22.32	1563.0
22.33	1513.0
22.34	1530.0
22.35	1604.0
22.36	1608.0
22.37	1577.0
22.38	1543.0
22.39	1533.0
22.4	1595.0
22.41	1637.0
22.42	1658.0
22.43	1621.0
22.44	1530.0
22.45	1615.0
22.46	1655.0
22.47	1619.0
22.48	1589.0
22.49	1597.0
22.5	1564.0
22.51	1601.0
22.52	1657.0
22.53	1582.0
22.54	1507.0
22.55	1599.0
22.56	1583.0
22.57	1532.0
22.58	1528.0
22.59	1525.0
22.6	1480.0
22.61	1527.0
22.62	1554.0
22.63	1547.0
22.64	1520.0
22.65	1505.0
22.66	1479.0
22.67	1474.0
22.68	1508.0
22.69	1540.0
22.7	1501.0
22.71	1535.0
22.72	1525.0
22.73	1486.0
22.74	1483.0
22.75	1485.0
22.76	1474.0
22.77	1483.0
22.78	1466.0
22.79	1535.0
22.8	1493.0
22.81	1514.0
22.82	1501.0
22.83	1504.0
22.84	1515.0
22.85	1471.0
22.86	1493.0
22.87	1488.0
22.88	1453.0
22.89	1482.0
22.9	1519.0
22.91	1482.0
22.92	1474.0
22.93	1485.0
22.94	1447.0
22.95	1433.0
22.96	1467.0
22.97	1461.0
22.98	1468.0
22.99	1490.0
23.0	1460.0
23.01	1423.0
23.02	1455.0
23.03	1471.0
23.04	1473.0
23.05	1509.0
23.06	1453.0
23.07	1484.0
23.08	1486.0
23.09	1486.0
23.1	1493.0
23.11	1467.0
23.12	1471.0
23.13	1488.0
23.14	1494.0
23.15	1493.0
23.16	1506.0
23.17	1532.0
23.18	1500.0
23.19	1464.0
23.2	1484.0
23.21	1450.0
23.22	1490.0
23.23	1484.0
23.24	1509.0
23.25	1528.0
23.26	1523.0
23.27	1517.0
23.28	1475.0
23.29	1477.0
23.3	1474.0
23.31	1453.0
23.32	1500.0
23.33	1512.0
23.34	1510.0
23.35	1525.0
23.36	1489.0
23.37	1494.0
23.38	1480.0
23.39	1515.0
23.4	1541.0
23.41	1523.0
23.42	1524.0
23.43	1551.0
23.44	1476.0
23.45	1530.0
23.46	1502.0
23.47	1519.0
23.48	1524.0
23.49	1514.0
23.5	1553.0
23.51	1536.0
23.52	1548.0
23.53	1481.0
23.54	1478.0
23.55	1476.0
23.56	1524.0
23.57	1565.0
23.58	1505.0
23.59	1502.0
23.6	1599.0
23.61	1610.0
23.62	1558.0
23.63	1552.0
23.64	1603.0
23.65	1581.0
23.66	1547.0
23.67	1570.0
23.68	1613.0
23.69	1561.0
23.7	1564.0
23.71	1562.0
23.72	1561.0
23.73	1565.0
23.74	1557.0
23.75	1531.0
23.76	1559.0
23.77	1566.0
23.78	1562.0
23.79	1526.0
23.8	1498.0
23.81	1525.0
23.82	1549.0
23.83	1517.0
23.84	1511.0
23.85	1535.0
23.86	1492.0
23.87	1494.0
23.88	1530.0
23.89	1477.0
23.9	1516.0
23.91	1528.0
23.92	1543.0
23.93	1541.0
23.94	1485.0
23.95	1430.0
23.96	1450.0
23.97	1452.0
23.98	1469.0
23.99	1477.0
24.0	1445.0
24.01	1425.0
24.02	1433.0
24.03	1452.0
24.04	1463.0
24.05	1466.0
24.06	1438.0
24.07	1401.0
24.08	1445.0
24.09	1453.0
24.1	1430.0
24.11	1470.0
24.12	1415.0
24.13	1369.0
24.14	1405.0
24.15	1427.0
24.16	1430.0
24.17	1393.0
24.18	1412.0
24.19	1444.0
24.2	1398.0
24.21	1346.0
24.22	1383.0
24.23	1419.0
24.24	1394.0
24.25	1413.0
24.26	1406.0
24.27	1379.0
24.28	1370.0
24.29	1376.0
24.3	1378.0
24.31	1399.0
24.32	1380.0
24.33	1350.0
24.34	1334.0
24.35	1336.0
24.36	1313.0
24.37	1348.0
24.38	1380.0
24.39	1403.0
24.4	1413.0
24.41	1367.0
24.42	1362.0
24.43	1411.0
24.44	1420.0
24.45	1366.0
24.46	1359.0
24.47	1385.0
24.48	1331.0
24.49	1290.0
24.5	1322.0
24.51	1338.0
24.52	1328.0
24.53	1305.0
24.54	1328.0
24.55	1347.0
24.56	1323.0
24.57	1369.0
24.58	1383.0
24.59	1328.0
24.6	1315.0
24.61	1343.0
24.62	1340.0
24.63	1335.0
24.64	1328.0
24.65	1351.0
24.66	1370.0
24.67	1344.0
24.68	1367.0
24.69	1347.0
24.7	1304.0
24.71	1289.0
24.72	1332.0
24.73	1356.0
24.74	1323.0
24.75	1277.0
24.76	1294.0
24.77	1315.0
24.78	1330.0
24.79	1306.0
24.8	1306.0
24.81	1291.0
24.82	1310.0
24.83	1312.0
24.84	1317.0
24.85	1305.0
24.86	1299.0
24.87	1324.0
24.88	1324.0
24.89	1314.0
24.9	1317.0
24.91	1316.0
24.92	1255.0
24.93	1269.0
24.94	1287.0
24.95	1280.0
24.96	1326.0
24.97	1335.0
24.98	1303.0
24.99	1305.0
25.0	1336.0
25.01	1304.0
25.02	1279.0
25.03	1298.0
25.04	1316.0
25.05	1312.0
25.06	1288.0
25.07	1284.0
25.08	1315.0
25.09	1331.0
25.1	1333.0
25.11	1348.0
25.12	1308.0
25.13	1318.0
25.14	1272.0
25.15	1256.0
25.16	1272.0
25.17	1282.0
25.18	1270.0
25.19	1314.0
25.2	1322.0
25.21	1309.0
25.22	1322.0
25.23	1331.0
25.24	1306.0
25.25	1282.0
25.26	1286.0
25.27	1304.0
25.28	1305.0
25.29	1297.0
25.3	1311.0
25.31	1313.0
25.32	1287.0
25.33	1297.0
25.34	1287.0
25.35	1306.0
25.36	1337.0
25.37	1361.0
25.38	1329.0
25.39	1297.0
25.4	1294.0
25.41	1266.0
25.42	1265.0
25.43	1256.0
25.44	1249.0
25.45	1281.0
25.46	1310.0
25.47	1318.0
25.48	1318.0
25.49	1315.0
25.5	1298.0
25.51	1269.0
25.52	1276.0
25.53	1256.0
25.54	1260.0
25.55	1291.0
25.56	1335.0
25.57	1336.0
25.58	1343.0
25.59	1311.0
25.6	1300.0
25.61	1311.0
25.62	1337.0
25.63	1312.0
25.64	1283.0
25.65	1300.0
25.66	1329.0
25.67	1326.0
25.68	1309.0
25.69	1276.0
25.7	1263.0
25.71	1254.0
25.72	1270.0
25.73	1283.0
25.74	1291.0
25.75	1269.0
25.76	1236.0
25.77	1260.0
25.78	1312.0
25.79	1351.0
25.8	1347.0
25.81	1314.0
25.82	1293.0
25.83	1275.0
25.84	1252.0
25.85	1291.0
25.86	1321.0
25.87	1303.0
25.88	1302.0
25.89	1283.0
25.9	1287.0
25.91	1299.0
25.92	1285.0
25.93	1259.0
25.94	1280.0
25.95	1331.0
25.96	1300.0
25.97	1257.0
25.98	1298.0
25.99	1318.0
26.0	1329.0
26.01	1353.0
26.02	1358.0
26.03	1327.0
26.04	1312.0
26.05	1327.0
26.06	1336.0
26.07	1344.0
26.08	1318.0
26.09	1280.0
26.1	1282.0
26.11	1306.0
26.12	1313.0
26.13	1300.0
26.14	1266.0
26.15	1261.0
26.16	1288.0
26.17	1276.0
26.18	1247.0
26.19	1269.0
26.2	1313.0
26.21	1297.0
26.22	1271.0
26.23	1272.0
26.24	1274.0
26.25	1288.0
26.26	1290.0
26.27	1309.0
26.28	1298.0
26.29	1270.0
26.3	1292.0
26.31	1308.0
26.32	1286.0
26.33	1290.0
26.34	1290.0
26.35	1273.0
26.36	1262.0
26.37	1225.0
26.38	1216.0
26.39	1210.0
26.4	1229.0
26.41	1247.0
26.42	1250.0
26.43	1254.0
26.44	1229.0
26.45	1212.0
26.46	1226.0
26.47	1231.0
26.48	1223.0
26.49	1254.0
26.5	1261.0
26.51	1241.0
26.52	1215.0
26.53	1216.0
26.54	1228.0
26.55	1230.0
26.56	1249.0
26.57	1263.0
26.58	1234.0
26.59	1217.0
26.6	1209.0
26.61	1220.0
26.62	1234.0
26.63	1221.0
26.64	1195.0
26.65	1173.0
26.66	1189.0
26.67	1209.0
26.68	1217.0
26.69	1202.0
26.7	1177.0
26.71	1167.0
26.72	1195.0
26.73	1224.0
26.74	1208.0
26.75	1204.0
26.76	1210.0
26.77	1211.0
26.78	1217.0
26.79	1209.0
26.8	1187.0
26.81	1164.0
26.82	1147.0
26.83	1170.0
26.84	1203.0
26.85	1234.0
26.86	1225.0
26.87	1179.0
26.88	1168.0
26.89	1169.0
26.9	1159.0
26.91	1157.0
26.92	1178.0
26.93	1196.0
26.94	1175.0
26.95	1131.0
26.96	1134.0
26.97	1158.0
26.98	1173.0
26.99	1175.0
27.0	1141.0
27.01	1130.0
27.02	1141.0
27.03	1149.0
27.04	1152.0
27.05	1154.0
27.06	1153.0
27.07	1163.0
27.08	1169.0
27.09	1172.0
27.1	1169.0
27.11	1162.0
27.12	1162.0
27.13	1185.0
27.14	1205.0
27.15	1202.0
27.16	1187.0
27.17	1162.0
27.18	1165.0
27.19	1164.0
27.2	1168.0
27.21	1184.0
27.22	1159.0
27.23	1157.0
27.24	1193.0
27.25	1214.0
27.26	1181.0
27.27	1164.0
27.28	1188.0
27.29	1139.0
27.3	1104.0
27.31	1132.0
27.32	1145.0
27.33	1133.0
27.34	1135.0
27.35	1165.0
27.36	1159.0
27.37	1123.0
27.38	1121.0
27.39	1150.0
27.4	1172.0
27.41	1161.0
27.42	1155.0
27.43	1156.0
27.44	1156.0
27.45	1158.0
27.46	1143.0
27.47	1132.0
27.48	1147.0
27.49	1176.0
27.5	1180.0
27.51	1165.0
27.52	1172.0
27.53	1181.0
27.54	1173.0
27.55	1169.0
27.56	1179.0
27.57	1173.0
27.58	1147.0
27.59	1131.0
27.6	1137.0
27.61	1134.0
27.62	1126.0
27.63	1144.0
27.64	1157.0
27.65	1130.0
27.66	1080.0
27.67	1094.0
27.68	1151.0
27.69	1158.0
27.7	1178.0
27.71	1199.0
27.72	1156.0
27.73	1134.0
27.74	1131.0
27.75	1139.0
27.76	1140.0
27.77	1151.0
27.78	1134.0
27.79	1094.0
27.8	1115.0
27.81	1123.0
27.82	1107.0
27.83	1114.0
27.84	1126.0
27.85	1130.0
27.86	1117.0
27.87	1116.0
27.88	1140.0
27.89	1151.0
27.9	1127.0
27.91	1098.0
27.92	1095.0
27.93	1097.0
27.94	1085.0
27.95	1078.0
27.96	1108.0
27.97	1119.0
27.98	1095.0
27.99	1118.0
28.0	1104.0
28.01	1075.0
28.02	1090.0
28.03	1090.0
28.04	1084.0
28.05	1095.0
28.06	1114.0
28.07	1118.0
28.08	1109.0
28.09	1098.0
28.1	1098.0
28.11	1122.0
28.12	1132.0
28.13	1106.0
28.14	1114.0
28.15	1127.0
28.16	1119.0
28.17	1092.0
28.18	1066.0
28.19	1079.0
28.2	1100.0
28.21	1113.0
28.22	1128.0
28.23	1109.0
28.24	1057.0
28.25	1067.0
28.26	1117.0
28.27	1123.0
28.28	1109.0
28.29	1098.0
28.3	1080.0
28.31	1083.0
28.32	1090.0
28.33	1104.0
28.34	1113.0
28.35	1086.0
28.36	1092.0
28.37	1100.0
28.38	1092.0
28.39	1116.0
28.4	1132.0
28.41	1109.0
28.42	1082.0
28.43	1083.0
28.44	1097.0
28.45	1081.0
28.46	1065.0
28.47	1089.0
28.48	1124.0
28.49	1131.0
28.5	1118.0
28.51	1086.0
28.52	1073.0
28.53	1060.0
28.54	1053.0
28.55	1043.0
28.56	1075.0
28.57	1088.0
28.58	1078.0
28.59	1067.0
28.6	1074.0
28.61	1076.0
28.62	1083.0
28.63	1099.0
28.64	1076.0
28.65	1039.0
28.66	1040.0
28.67	1057.0
28.68	1063.0
28.69	1084.0
28.7	1091.0
28.71	1090.0
28.72	1100.0
28.73	1101.0
28.74	1077.0
28.75	1056.0
28.76	1047.0
28.77	1084.0
28.78	1099.0
28.79	1074.0
28.8	1063.0
28.81	1079.0
28.82	1073.0
28.83	1062.0
28.84	1068.0
28.85	1059.0
28.86	1068.0
28.87	1068.0
28.88	1053.0
28.89	1080.0
28.9	1084.0
28.91	1068.0
28.92	1070.0
28.93	1048.0
28.94	1096.0
28.95	1096.0
28.96	1065.0
28.97	1071.0
28.98	1083.0
28.99	1084.0
29.0	1099.0
29.01	1067.0
29.02	1045.0
29.03	1017.0
29.04	1015.0
29.05	1030.0
29.06	1051.0
29.07	1049.0
29.08	1067.0
29.09	1088.0
29.1	1079.0
29.11	1058.0
29.12	1023.0
29.13	1040.0
29.14	1088.0
29.15	1065.0
29.16	1033.0
29.17	1039.0
29.18	1049.0
29.19	1069.0
29.2	1070.0
29.21	1081.0
29.22	1061.0
29.23	1048.0
29.24	1061.0
29.25	1076.0
29.26	1079.0
29.27	1070.0
29.28	1081.0
29.29	1069.0
29.3	1052.0
29.31	1029.0
29.32	1028.0
29.33	1058.0
29.34	1057.0
29.35	1048.0
29.36	1025.0
29.37	1053.0
29.38	1048.0
29.39	1063.0
29.4	1052.0
29.41	1036.0
29.42	1059.0
29.43	1023.0
29.44	1013.0
29.45	1030.0
29.46	1061.0
29.47	1053.0
29.48	1050.0
29.49	1043.0
29.5	1067.0
29.51	1112.0
29.52	1094.0
29.53	1064.0
29.54	1033.0
29.55	1029.0
29.56	1047.0
29.57	1055.0
29.58	1072.0
29.59	1058.0
29.6	1040.0
29.61	1016.0
29.62	1042.0
29.63	1026.0
29.64	1027.0
29.65	1051.0
29.66	1054.0
29.67	1031.0
29.68	1006.0
29.69	1029.0
29.7	1084.0
29.71	1102.0
29.72	1096.0
29.73	1069.0
29.74	1060.0
29.75	1094.0
29.76	1091.0
29.77	1061.0
29.78	1026.0
29.79	1066.0
29.8	1022.0
29.81	1014.0
29.82	996.0
29.83	1056.0
29.84	1084.0
29.85	1047.0
29.86	1046.0
29.87	1041.0
29.88	1051.0
29.89	999.0
29.9	1000.0
29.91	1049.0
29.92	1045.0
29.93	1071.0
29.94	1072.0
29.95	1052.0
29.96	1063.0
29.97	1094.0
29.98	1082.0
29.99	1079.0
30.0	1077.0
30.01	1078.0
30.02	1073.0
30.03	1056.0
30.04	1087.0
30.05	1065.0
30.06	1085.0
30.07	1069.0
30.08	1097.0
30.09	1123.0
30.1	1099.0
30.11	1136.0
30.12	1177.0
30.13	1189.0
30.14	1225.0
30.15	1272.0
30.16	1315.0
30.17	1371.0
30.18	1452.0
30.19	1540.0
30.2	1594.0
30.21	1636.0
30.22	1627.0
30.23	1676.0
30.24	1678.0
30.25	1671.0
30.26	1655.0
30.27	1580.0
30.28	1545.0
30.29	1506.0
30.3	1509.0
30.31	1447.0
30.32	1359.0
30.33	1344.0
30.34	1312.0
30.35	1230.0
30.36	1175.0
30.37	1150.0
30.38	1119.0
30.39	1117.0
30.4	1091.0
30.41	1033.0
30.42	1014.0
30.43	1018.0
30.44	1006.0
30.45	1076.0
30.46	1049.0
30.47	999.0
30.48	949.0
30.49	1007.0
30.5	1004.0
30.51	1002.0
30.52	997.0
30.53	1023.0
30.54	1000.0
30.55	985.0
30.56	1028.0
30.57	1024.0
30.58	991.0
30.59	972.0
30.6	979.0
30.61	972.0
30.62	964.0
30.63	982.0
30.64	967.0
30.65	969.0
30.66	984.0
30.67	1005.0
30.68	987.0
30.69	977.0
30.7	950.0
30.71	945.0
30.72	961.0
30.73	975.0
30.74	929.0
30.75	957.0
30.76	971.0
30.77	987.0
30.78	992.0
30.79	1001.0
30.8	966.0
30.81	985.0
30.82	968.0
30.83	938.0
30.84	950.0
30.85	955.0
30.86	959.0
30.87	955.0
30.88	948.0
30.89	965.0
30.9	926.0
30.91	973.0
30.92	994.0
30.93	971.0
30.94	955.0
30.95	940.0
30.96	932.0
30.97	924.0
30.98	956.0
30.99	934.0
31.0	912.0
31.01	961.0
31.02	960.0
31.03	954.0
31.04	953.0
31.05	986.0
31.06	967.0
31.07	994.0
31.08	950.0
31.09	988.0
31.1	989.0
31.11	972.0
31.12	958.0
31.13	934.0
31.14	934.0
31.15	952.0
31.16	968.0
31.17	936.0
31.18	917.0
31.19	905.0
31.2	925.0
31.21	965.0
31.22	961.0
31.23	958.0
31.24	980.0
31.25	961.0
31.26	977.0
31.27	984.0
31.28	946.0
31.29	941.0
31.3	965.0
31.31	969.0
31.32	983.0
31.33	1010.0
31.34	966.0
31.35	912.0
31.36	890.0
31.37	930.0
31.38	931.0
31.39	894.0
31.4	904.0
31.41	936.0
31.42	926.0
31.43	939.0
31.44	919.0
31.45	969.0
31.46	927.0
31.47	933.0
31.48	906.0
31.49	909.0
31.5	919.0
31.51	959.0
31.52	924.0
31.53	924.0
31.54	943.0
31.55	914.0
31.56	922.0
31.57	922.0
31.58	953.0
31.59	946.0
31.6	909.0
31.61	888.0
31.62	895.0
31.63	910.0
31.64	962.0
31.65	963.0
31.66	952.0
31.67	918.0
31.68	895.0
31.69	900.0
31.7	950.0
31.71	914.0
31.72	890.0
31.73	940.0
31.74	910.0
31.75	938.0
31.76	933.0
31.77	915.0
31.78	923.0
31.79	918.0
31.8	958.0
31.81	902.0
31.82	947.0
31.83	941.0
31.84	897.0
31.85	933.0
31.86	952.0
31.87	954.0
31.88	944.0
31.89	936.0
31.9	922.0
31.91	932.0
31.92	938.0
31.93	912.0
31.94	898.0
31.95	913.0
31.96	920.0
31.97	956.0
31.98	893.0
31.99	898.0
32.0	928.0
32.01	923.0
32.02	933.0
32.03	947.0
32.04	955.0
32.05	923.0
32.06	934.0
32.07	937.0
32.08	934.0
32.09	910.0
32.1	908.0
32.11	902.0
32.12	954.0
32.13	934.0
32.14	951.0
32.15	956.0
32.16	927.0
32.17	917.0
32.18	923.0
32.19	944.0
32.2	935.0
32.21	937.0
32.22	893.0
32.23	902.0
32.24	904.0
32.25	935.0
32.26	941.0
32.27	938.0
32.28	932.0
32.29	908.0
32.3	879.0
32.31	885.0
32.32	920.0
32.33	917.0
32.34	915.0
32.35	904.0
32.36	894.0
32.37	923.0
32.38	932.0
32.39	945.0
32.4	940.0
32.41	950.0
32.42	931.0
32.43	911.0
32.44	919.0
32.45	949.0
32.46	947.0
32.47	941.0
32.48	921.0
32.49	947.0
32.5	936.0
32.51	921.0
32.52	943.0
32.53	918.0
32.54	927.0
32.55	921.0
32.56	915.0
32.57	915.0
32.58	911.0
32.59	965.0
32.6	951.0
32.61	935.0
32.62	925.0
32.63	899.0
32.64	926.0
32.65	942.0
32.66	916.0
32.67	900.0
32.68	894.0
32.69	917.0
32.7	939.0
32.71	936.0
32.72	922.0
32.73	916.0
32.74	905.0
32.75	906.0
32.76	889.0
32.77	901.0
32.78	911.0
32.79	908.0
32.8	926.0
32.81	892.0
32.82	898.0
32.83	907.0
32.84	897.0
32.85	864.0
32.86	907.0
32.87	930.0
32.88	888.0
32.89	893.0
32.9	929.0
32.91	936.0
32.92	897.0
32.93	888.0
32.94	932.0
32.95	897.0
32.96	901.0
32.97	902.0
32.98	867.0
32.99	866.0
33.0	871.0
33.01	856.0
33.02	873.0
33.03	898.0
33.04	893.0
33.05	876.0
33.06	896.0
33.07	897.0
33.08	875.0
33.09	879.0
33.1	929.0
33.11	929.0
33.12	907.0
33.13	864.0
33.14	844.0
33.15	873.0
33.16	895.0
33.17	917.0
33.18	890.0
33.19	878.0
33.2	890.0
33.21	917.0
33.22	910.0
33.23	915.0
33.24	917.0
33.25	901.0
33.26	873.0
33.27	896.0
33.28	884.0
33.29	879.0
33.3	895.0
33.31	873.0
33.32	883.0
33.33	897.0
33.34	895.0
33.35	868.0
33.36	893.0
33.37	878.0
33.38	892.0
33.39	874.0
33.4	880.0
33.41	862.0
33.42	865.0
33.43	875.0
33.44	873.0
33.45	867.0
33.46	901.0
33.47	909.0
33.48	898.0
33.49	897.0
33.5	892.0
33.51	899.0
33.52	878.0
33.53	868.0
33.54	872.0
33.55	870.0
33.56	866.0
33.57	890.0
33.58	902.0
33.59	911.0
33.6	909.0
33.61	903.0
33.62	896.0
33.63	883.0
33.64	890.0
33.65	893.0
33.66	895.0
33.67	888.0
33.68	884.0
33.69	875.0
33.7	866.0
33.71	879.0
33.72	863.0
33.73	877.0
33.74	898.0
33.75	919.0
33.76	926.0
33.77	919.0
33.78	961.0
33.79	967.0
33.8	925.0
33.81	885.0
33.82	885.0
33.83	889.0
33.84	895.0
33.85	897.0
33.86	914.0
33.87	890.0
33.88	873.0
33.89	874.0
33.9	854.0
33.91	883.0
33.92	913.0
33.93	911.0
33.94	901.0
33.95	899.0
33.96	889.0
33.97	875.0
33.98	905.0
33.99	904.0
34.0	861.0
34.01	849.0
34.02	830.0
34.03	868.0
34.04	877.0
34.05	853.0
34.06	858.0
34.07	868.0
34.08	896.0
34.09	897.0
34.1	882.0
34.11	862.0
34.12	861.0
34.13	877.0
34.14	884.0
34.15	911.0
34.16	916.0
34.17	894.0
34.18	884.0
34.19	881.0
34.2	893.0
34.21	896.0
34.22	893.0
34.23	875.0
34.24	847.0
34.25	829.0
34.26	826.0
34.27	846.0
34.28	864.0
34.29	860.0
34.3	861.0
34.31	869.0
34.32	868.0
34.33	906.0
34.34	927.0
34.35	917.0
34.36	867.0
34.37	883.0
34.38	910.0
34.39	898.0
34.4	891.0
34.41	900.0
34.42	886.0
34.43	891.0
34.44	889.0
34.45	907.0
34.46	914.0
34.47	868.0
34.48	881.0
34.49	916.0
34.5	925.0
34.51	897.0
34.52	894.0
34.53	851.0
34.54	853.0
34.55	890.0
34.56	895.0
34.57	879.0
34.58	883.0
34.59	875.0
34.6	882.0
34.61	904.0
34.62	904.0
34.63	912.0
34.64	913.0
34.65	894.0
34.66	888.0
34.67	890.0
34.68	916.0
34.69	884.0
34.7	863.0
34.71	900.0
34.72	913.0
34.73	920.0
34.74	897.0
34.75	905.0
34.76	919.0
34.77	906.0
34.78	885.0
34.79	879.0
34.8	899.0
34.81	909.0
34.82	912.0
34.83	917.0
34.84	902.0
34.85	917.0
34.86	948.0
34.87	936.0
34.88	911.0
34.89	924.0
34.9	907.0
34.91	928.0
34.92	924.0
34.93	927.0
34.94	926.0
34.95	921.0
34.96	914.0
34.97	924.0
34.98	929.0
34.99	967.0
35.0	965.0
35.01	935.0
35.02	933.0
35.03	933.0
35.04	941.0
35.05	978.0
35.06	985.0
35.07	959.0
35.08	994.0
35.09	1032.0
35.1	1002.0
35.11	1006.0
35.12	1011.0
35.13	987.0
35.14	965.0
35.15	1005.0
35.16	1027.0
35.17	1020.0
35.18	1016.0
35.19	1026.0
35.2	1080.0
35.21	1088.0
35.22	1092.0
35.23	1120.0
35.24	1123.0
35.25	1103.0
35.26	1098.0
35.27	1130.0
35.28	1134.0
35.29	1109.0
35.3	1097.0
35.31	1102.0
35.32	1106.0
35.33	1118.0
35.34	1156.0
35.35	1201.0
35.36	1258.0
35.37	1252.0
35.38	1236.0
35.39	1275.0
35.4	1317.0
35.41	1355.0
35.42	1407.0
35.43	1479.0
35.44	1567.0
35.45	1646.0
35.46	1692.0
35.47	1813.0
35.48	2021.0
35.49	2216.0
35.5	2427.0
35.51	2667.0
35.52	2984.0
35.53	3356.0
35.54	3763.0
35.55	4338.0
35.56	5019.0
35.57	5655.0
35.58	6255.0
35.59	6768.0
35.6	7123.0
35.61	7271.0
35.62	7305.0
35.63	7149.0
35.64	6836.0
35.65	6521.0
35.66	6166.0
35.67	5893.0
35.68	5611.0
35.69	5328.0
35.7	5089.0
35.71	4768.0
35.72	4356.0
35.73	3955.0
35.74	3553.0
35.75	3127.0
35.76	2785.0
35.77	2520.0
35.78	2292.0
35.79	2054.0
35.8	1823.0
35.81	1704.0
35.82	1636.0
35.83	1529.0
35.84	1443.0
35.85	1370.0
35.86	1303.0
35.87	1273.0
35.88	1267.0
35.89	1265.0
35.9	1235.0
35.91	1187.0
35.92	1161.0
35.93	1144.0
35.94	1118.0
35.95	1109.0
35.96	1131.0
35.97	1143.0
35.98	1118.0
35.99	1072.0
36.0	1049.0
36.01	1035.0
36.02	1022.0
36.03	1026.0
36.04	1050.0
36.05	1040.0
36.06	1025.0
36.07	1034.0
36.08	1030.0
36.09	1019.0
36.1	996.0
36.11	973.0
36.12	972.0
36.13	960.0
36.14	964.0
36.15	977.0
36.16	957.0
36.17	935.0
36.18	953.0
36.19	961.0
36.2	949.0
36.21	944.0
36.22	942.0
36.23	925.0
36.24	909.0
36.25	916.0
36.26	912.0
36.27	901.0
36.28	896.0
36.29	878.0
36.3	861.0
36.31	890.0
36.32	909.0
36.33	883.0
36.34	887.0
36.35	913.0
36.36	910.0
36.37	885.0
36.38	879.0
36.39	883.0
36.4	888.0
36.41	878.0
36.42	860.0
36.43	865.0
36.44	892.0
36.45	907.0
36.46	880.0
36.47	861.0
36.48	876.0
36.49	883.0
36.5	885.0
36.51	891.0
36.52	883.0
36.53	887.0
36.54	896.0
36.55	882.0
36.56	859.0
36.57	857.0
36.58	860.0
36.59	850.0
36.6	839.0
36.61	836.0
36.62	833.0
36.63	828.0
36.64	850.0
36.65	847.0
36.66	835.0
36.67	857.0
36.68	843.0
36.69	826.0
36.7	845.0
36.71	835.0
36.72	811.0
36.73	812.0
36.74	831.0
36.75	835.0
36.76	823.0
36.77	832.0
36.78	850.0
36.79	848.0
36.8	834.0
36.81	847.0
36.82	850.0
36.83	846.0
36.84	856.0
36.85	875.0
36.86	879.0
36.87	846.0
36.88	816.0
36.89	833.0
36.9	854.0
36.91	839.0
36.92	804.0
36.93	795.0
36.94	825.0
36.95	839.0
36.96	829.0
36.97	828.0
36.98	822.0
36.99	815.0
37.0	825.0
37.01	823.0
37.02	832.0
37.03	844.0
37.04	852.0
37.05	835.0
37.06	836.0
37.07	841.0
37.08	828.0
37.09	835.0
37.1	867.0
37.11	876.0
37.12	870.0
37.13	868.0
37.14	875.0
37.15	868.0
37.16	890.0
37.17	948.0
37.18	969.0
37.19	980.0
37.2	997.0
37.21	1013.0
37.22	1080.0
37.23	1138.0
37.24	1148.0
37.25	1153.0
37.26	1156.0
37.27	1136.0
37.28	1118.0
37.29	1094.0
37.3	1080.0
37.31	1060.0
37.32	1077.0
37.33	1074.0
37.34	1041.0
37.35	1029.0
37.36	1044.0
37.37	1035.0
37.38	983.0
37.39	941.0
37.4	917.0
37.41	889.0
37.42	869.0
37.43	874.0
37.44	886.0
37.45	862.0
37.46	843.0
37.47	873.0
37.48	870.0
37.49	866.0
37.5	851.0
37.51	842.0
37.52	828.0
37.53	824.0
37.54	799.0
37.55	789.0
37.56	802.0
37.57	804.0
37.58	808.0
37.59	821.0
37.6	812.0
37.61	806.0
37.62	818.0
37.63	808.0
37.64	795.0
37.65	793.0
37.66	811.0
37.67	802.0
37.68	781.0
37.69	789.0
37.7	816.0
37.71	818.0
37.72	798.0
37.73	775.0
37.74	775.0
37.75	784.0
37.76	774.0
37.77	785.0
37.78	816.0
37.79	821.0
37.8	810.0
37.81	804.0
37.82	786.0
37.83	787.0
37.84	800.0
37.85	810.0
37.86	801.0
37.87	777.0
37.88	773.0
37.89	766.0
37.9	808.0
37.91	809.0
37.92	816.0
37.93	783.0
37.94	793.0
37.95	794.0
37.96	775.0
37.97	773.0
37.98	793.0
37.99	785.0
38.0	792.0
38.01	803.0
38.02	792.0
38.03	779.0
38.04	779.0
38.05	790.0
38.06	789.0
38.07	775.0
38.08	793.0
38.09	818.0
38.1	799.0
38.11	781.0
38.12	779.0
38.13	792.0
38.14	770.0
38.15	748.0
38.16	766.0
38.17	770.0
38.18	753.0
38.19	756.0
38.2	794.0
38.21	804.0
38.22	791.0
38.23	806.0
38.24	802.0
38.25	789.0
38.26	758.0
38.27	754.0
38.28	767.0
38.29	762.0
38.3	767.0
38.31	769.0
38.32	764.0
38.33	768.0
38.34	767.0
38.35	770.0
38.36	788.0
38.37	800.0
38.38	792.0
38.39	763.0
38.4	757.0
38.41	772.0
38.42	766.0
38.43	772.0
38.44	776.0
38.45	770.0
38.46	762.0
38.47	761.0
38.48	772.0
38.49	795.0
38.5	791.0
38.51	794.0
38.52	771.0
38.53	756.0
38.54	778.0
38.55	792.0
38.56	786.0
38.57	774.0
38.58	787.0
38.59	794.0
38.6	781.0
38.61	801.0
38.62	780.0
38.63	762.0
38.64	764.0
38.65	773.0
38.66	801.0
38.67	805.0
38.68	782.0
38.69	767.0
38.7	769.0
38.71	779.0
38.72	795.0
38.73	766.0
38.74	792.0
38.75	806.0
38.76	790.0
38.77	787.0
38.78	807.0
38.79	810.0
38.8	793.0
38.81	800.0
38.82	833.0
38.83	818.0
38.84	806.0
38.85	794.0
38.86	786.0
38.87	789.0
38.88	796.0
38.89	813.0
38.9	807.0
38.91	796.0
38.92	782.0
38.93	777.0
38.94	773.0
38.95	771.0
38.96	796.0
38.97	803.0
38.98	777.0
38.99	790.0
39.0	780.0
39.01	765.0
39.02	745.0
39.03	768.0
39.04	763.0
39.05	735.0
39.06	732.0
39.07	767.0
39.08	787.0
39.09	785.0
39.1	784.0
39.11	788.0
39.12	769.0
39.13	769.0
39.14	772.0
39.15	768.0
39.16	794.0
39.17	781.0
39.18	750.0
39.19	727.0
39.2	728.0
39.21	725.0
39.22	717.0
39.23	757.0
39.24	776.0
39.25	786.0
39.26	747.0
39.27	732.0
39.28	730.0
39.29	745.0
39.3	748.0
39.31	725.0
39.32	720.0
39.33	755.0
39.34	768.0
39.35	737.0
39.36	717.0
39.37	730.0
39.38	760.0
39.39	768.0
39.4	761.0
39.41	728.0
39.42	744.0
39.43	763.0
39.44	744.0
39.45	740.0
39.46	765.0
39.47	781.0
39.48	773.0
39.49	770.0
39.5	752.0
39.51	749.0
39.52	729.0
39.53	749.0
39.54	731.0
39.55	743.0
39.56	751.0
39.57	764.0
39.58	747.0
39.59	766.0
39.6	767.0
39.61	757.0
39.62	781.0
39.63	766.0
39.64	760.0
39.65	775.0
39.66	765.0
39.67	733.0
39.68	734.0
39.69	786.0
39.7	803.0
39.71	779.0
39.72	764.0
39.73	745.0
39.74	736.0
39.75	732.0
39.76	720.0
39.77	722.0
39.78	725.0
39.79	779.0
39.8	768.0
39.81	756.0
39.82	717.0
39.83	765.0
39.84	752.0
39.85	763.0
39.86	767.0
39.87	752.0
39.88	734.0
39.89	728.0
39.9	728.0
39.91	745.0
39.92	741.0
39.93	704.0
39.94	706.0
39.95	740.0
39.96	739.0
39.97	749.0
39.98	739.0
39.99	726.0
40.0	726.0
40.01	733.0
40.02	776.0
40.03	757.0
40.04	748.0
40.05	764.0
40.06	726.0
40.07	731.0
40.08	764.0
40.09	740.0
40.1	737.0
40.11	730.0
40.12	738.0
40.13	752.0
40.14	745.0
40.15	740.0
40.16	774.0
40.17	802.0
40.18	773.0
40.19	750.0
40.2	755.0
40.21	750.0
40.22	721.0
40.23	721.0
40.24	712.0
40.25	738.0
40.26	734.0
40.27	743.0
40.28	743.0
40.29	752.0
40.3	748.0
40.31	737.0
40.32	729.0
40.33	710.0
40.34	716.0
40.35	728.0
40.36	754.0
40.37	741.0
40.38	752.0
40.39	747.0
40.4	728.0
40.41	723.0
40.42	747.0
40.43	745.0
40.44	744.0
40.45	741.0
40.46	726.0
40.47	734.0
40.48	734.0
40.49	727.0
40.5	759.0
40.51	757.0
40.52	719.0
40.53	703.0
40.54	717.0
40.55	709.0
40.56	731.0
40.57	759.0
40.58	735.0
40.59	707.0
40.6	722.0
40.61	770.0
40.62	794.0
40.63	759.0
40.64	754.0
40.65	733.0
40.66	703.0
40.67	734.0
40.68	747.0
40.69	748.0
40.7	755.0
40.71	752.0
40.72	753.0
40.73	747.0
40.74	718.0
40.75	713.0
40.76	739.0
40.77	765.0
40.78	721.0
40.79	694.0
40.8	718.0
40.81	744.0
40.82	762.0
40.83	728.0
40.84	745.0
40.85	741.0
40.86	718.0
40.87	737.0
40.88	750.0
40.89	752.0
40.9	741.0
40.91	734.0
40.92	723.0
40.93	729.0
40.94	730.0
40.95	745.0
40.96	732.0
40.97	713.0
40.98	713.0
40.99	753.0
41.0	756.0
41.01	748.0
41.02	751.0
41.03	718.0
41.04	723.0
41.05	719.0
41.06	699.0
41.07	718.0
41.08	752.0
41.09	752.0
41.1	723.0
41.11	705.0
41.12	696.0
41.13	698.0
41.14	718.0
41.15	699.0
41.16	709.0
41.17	699.0
41.18	699.0
41.19	708.0
41.2	737.0
41.21	736.0
41.22	741.0
41.23	695.0
41.24	730.0
41.25	693.0
41.26	691.0
41.27	719.0
41.28	736.0
41.29	712.0
41.3	707.0
41.31	733.0
41.32	724.0
41.33	706.0
41.34	699.0
41.35	702.0
41.36	721.0
41.37	707.0
41.38	708.0
41.39	734.0
41.4	723.0
41.41	694.0
41.42	702.0
41.43	722.0
41.44	721.0
41.45	719.0
41.46	711.0
41.47	742.0
41.48	711.0
41.49	713.0
41.5	746.0
41.51	718.0
41.52	733.0
41.53	714.0
41.54	726.0
41.55	720.0
41.56	719.0
41.57	690.0
41.58	716.0
41.59	692.0
41.6	730.0
41.61	748.0
41.62	707.0
41.63	695.0
41.64	701.0
41.65	725.0
41.66	712.0
41.67	720.0
41.68	702.0
41.69	726.0
41.7	717.0
41.71	730.0
41.72	742.0
41.73	743.0
41.74	750.0
41.75	782.0
41.76	752.0
41.77	716.0
41.78	742.0
41.79	753.0
41.8	742.0
41.81	747.0
41.82	758.0
41.83	762.0
41.84	740.0
41.85	749.0
41.86	726.0
41.87	736.0
41.88	770.0
41.89	733.0
41.9	754.0
41.91	701.0
41.92	675.0
41.93	728.0
41.94	759.0
41.95	762.0
41.96	751.0
41.97	756.0
41.98	780.0
41.99	746.0
42.0	703.0
42.01	735.0
42.02	777.0
42.03	749.0
42.04	745.0
42.05	746.0
42.06	727.0
42.07	721.0
42.08	756.0
42.09	741.0
42.1	719.0
42.11	753.0
42.12	779.0
42.13	749.0
42.14	720.0
42.15	726.0
42.16	762.0
42.17	774.0
42.18	749.0
42.19	745.0
42.2	750.0
42.21	742.0
42.22	785.0
42.23	779.0
42.24	754.0
42.25	761.0
42.26	750.0
42.27	732.0
42.28	755.0
42.29	738.0
42.3	742.0
42.31	791.0
42.32	811.0
42.33	776.0
42.34	759.0
42.35	735.0
42.36	763.0
42.37	781.0
42.38	784.0
42.39	771.0
42.4	768.0
42.41	769.0
42.42	782.0
42.43	786.0
42.44	786.0
42.45	775.0
42.46	760.0
42.47	802.0
42.48	799.0
42.49	798.0
42.5	838.0
42.51	804.0
42.52	764.0
42.53	804.0
42.54	829.0
42.55	823.0
42.56	779.0
42.57	767.0
42.58	778.0
42.59	768.0
42.6	823.0
42.61	815.0
42.62	801.0
42.63	802.0
42.64	821.0
42.65	831.0
42.66	837.0
42.67	814.0
42.68	805.0
42.69	860.0
42.7	878.0
42.71	852.0
42.72	849.0
42.73	858.0
42.74	857.0
42.75	867.0
42.76	868.0
42.77	855.0
42.78	868.0
42.79	885.0
42.8	920.0
42.81	913.0
42.82	888.0
42.83	875.0
42.84	908.0
42.85	924.0
42.86	908.0
42.87	939.0
42.88	947.0
42.89	930.0
42.9	918.0
42.91	936.0
42.92	953.0
42.93	927.0
42.94	957.0
42.95	994.0
42.96	996.0
42.97	953.0
42.98	959.0
42.99	1032.0
43.0	1015.0
43.01	1067.0
43.02	1081.0
43.03	1107.0
43.04	1128.0
43.05	1116.0
43.06	1144.0
43.07	1192.0
43.08	1213.0
43.09	1251.0
43.1	1350.0
43.11	1388.0
43.12	1406.0
43.13	1523.0
43.14	1672.0
43.15	1777.0
43.16	1918.0
43.17	2088.0
43.18	2309.0
43.19	2648.0
43.2	2984.0
43.21	3357.0
43.22	3771.0
43.23	4242.0
43.24	4689.0
43.25	5113.0
43.26	5373.0
43.27	5533.0
43.28	5562.0
43.29	5568.0
43.3	5431.0
43.31	5215.0
43.32	5031.0
43.33	4859.0
43.34	4698.0
43.35	4539.0
43.36	4391.0
43.37	4273.0
43.38	4054.0
43.39	3824.0
43.4	3700.0
43.41	3500.0
43.42	3215.0
43.43	2933.0
43.44	2712.0
43.45	2487.0
43.46	2293.0
43.47	2061.0
43.48	1896.0
43.49	1712.0
43.5	1626.0
43.51	1553.0
43.52	1444.0
43.53	1338.0
43.54	1283.0
43.55	1288.0
43.56	1249.0
43.57	1195.0
43.58	1152.0
43.59	1129.0
43.6	1129.0
43.61	1082.0
43.62	1049.0
43.63	1070.0
43.64	1048.0
43.65	1016.0
43.66	1001.0
43.67	1021.0
43.68	1033.0
43.69	1009.0
43.7	983.0
43.71	944.0
43.72	942.0
43.73	946.0
43.74	945.0
43.75	937.0
43.76	959.0
43.77	952.0
43.78	890.0
43.79	919.0
43.8	941.0
43.81	919.0
43.82	899.0
43.83	878.0
43.84	865.0
43.85	859.0
43.86	870.0
43.87	886.0
43.88	875.0
43.89	888.0
43.9	875.0
43.91	877.0
43.92	836.0
43.93	811.0
43.94	823.0
43.95	820.0
43.96	847.0
43.97	849.0
43.98	884.0
43.99	839.0
44.0	844.0
44.01	816.0
44.02	801.0
44.03	809.0
44.04	812.0
44.05	805.0
44.06	823.0
44.07	802.0
44.08	811.0
44.09	830.0
44.1	798.0
44.11	760.0
44.12	762.0
44.13	781.0
44.14	796.0
44.15	832.0
44.16	837.0
44.17	803.0
44.18	798.0
44.19	811.0
44.2	763.0
44.21	772.0
44.22	789.0
44.23	779.0
44.24	779.0
44.25	774.0
44.26	761.0
44.27	752.0
44.28	755.0
44.29	776.0
44.3	802.0
44.31	802.0
44.32	793.0
44.33	781.0
44.34	796.0
44.35	787.0
44.36	763.0
44.37	759.0
44.38	765.0
44.39	777.0
44.4	776.0
44.41	757.0
44.42	766.0
44.43	752.0
44.44	747.0
44.45	758.0
44.46	761.0
44.47	755.0
44.48	777.0
44.49	747.0
44.5	765.0
44.51	790.0
44.52	774.0
44.53	766.0
44.54	754.0
44.55	728.0
44.56	734.0
44.57	745.0
44.58	736.0
44.59	743.0
44.6	751.0
44.61	762.0
44.62	755.0
44.63	739.0
44.64	760.0
44.65	730.0
44.66	725.0
44.67	740.0
44.68	691.0
44.69	713.0
44.7	716.0
44.71	693.0
44.72	657.0
44.73	685.0
44.74	710.0
44.75	728.0
44.76	736.0
44.77	742.0
44.78	748.0
44.79	735.0
44.8	733.0
44.81	711.0
44.82	722.0
44.83	755.0
44.84	735.0
44.85	740.0
44.86	711.0
44.87	724.0
44.88	747.0
44.89	724.0
44.9	718.0
44.91	739.0
44.92	740.0
44.93	737.0
44.94	739.0
44.95	695.0
44.96	700.0
44.97	707.0
44.98	719.0
44.99	730.0
45.0	712.0
45.01	703.0
45.02	729.0
45.03	744.0
45.04	703.0
45.05	684.0
45.06	688.0
45.07	727.0
45.08	748.0
45.09	729.0
45.1	721.0
45.11	767.0
45.12	749.0
45.13	711.0
45.14	709.0
45.15	709.0
45.16	714.0
45.17	722.0
45.18	742.0
45.19	718.0
45.2	714.0
45.21	714.0
45.22	718.0
45.23	708.0
45.24	705.0
45.25	716.0
45.26	721.0
45.27	718.0
45.28	713.0
45.29	721.0
45.3	705.0
45.31	665.0
45.32	701.0
45.33	736.0
45.34	750.0
45.35	718.0
45.36	715.0
45.37	678.0
45.38	670.0
45.39	702.0
45.4	727.0
45.41	740.0
45.42	725.0
45.43	708.0
45.44	722.0
45.45	740.0
45.46	740.0
45.47	732.0
45.48	740.0
45.49	734.0
45.5	729.0
45.51	716.0
45.52	685.0
45.53	684.0
45.54	703.0
45.55	704.0
45.56	711.0
45.57	701.0
45.58	707.0
45.59	717.0
45.6	724.0
45.61	730.0
45.62	727.0
45.63	700.0
45.64	710.0
45.65	718.0
45.66	702.0
45.67	716.0
45.68	729.0
45.69	724.0
45.7	717.0
45.71	720.0
45.72	715.0
45.73	722.0
45.74	737.0
45.75	723.0
45.76	721.0
45.77	711.0
45.78	701.0
45.79	697.0
45.8	709.0
45.81	702.0
45.82	699.0
45.83	708.0
45.84	733.0
45.85	742.0
45.86	731.0
45.87	675.0
45.88	671.0
45.89	701.0
45.9	720.0
45.91	739.0
45.92	738.0
45.93	712.0
45.94	721.0
45.95	735.0
45.96	731.0
45.97	734.0
45.98	740.0
45.99	715.0
46.0	719.0
46.01	729.0
46.02	747.0
46.03	752.0
46.04	756.0
46.05	732.0
46.06	721.0
46.07	723.0
46.08	728.0
46.09	725.0
46.1	699.0
46.11	702.0
46.12	723.0
46.13	720.0
46.14	702.0
46.15	717.0
46.16	702.0
46.17	693.0
46.18	670.0
46.19	688.0
46.2	704.0
46.21	710.0
46.22	744.0
46.23	746.0
46.24	730.0
46.25	719.0
46.26	709.0
46.27	705.0
46.28	701.0
46.29	695.0
46.3	722.0
46.31	739.0
46.32	693.0
46.33	687.0
46.34	709.0
46.35	705.0
46.36	711.0
46.37	708.0
46.38	684.0
46.39	696.0
46.4	706.0
46.41	708.0
46.42	712.0
46.43	679.0
46.44	680.0
46.45	682.0
46.46	680.0
46.47	683.0
46.48	685.0
46.49	692.0
46.5	664.0
46.51	664.0
46.52	690.0
46.53	696.0
46.54	691.0
46.55	706.0
46.56	693.0
46.57	710.0
46.58	700.0
46.59	699.0
46.6	718.0
46.61	700.0
46.62	690.0
46.63	700.0
46.64	710.0
46.65	719.0
46.66	720.0
46.67	690.0
46.68	694.0
46.69	709.0
46.7	699.0
46.71	691.0
46.72	674.0
46.73	673.0
46.74	693.0
46.75	708.0
46.76	689.0
46.77	653.0
46.78	670.0
46.79	681.0
46.8	660.0
46.81	647.0
46.82	670.0
46.83	681.0
46.84	681.0
46.85	664.0
46.86	671.0
46.87	685.0
46.88	693.0
46.89	690.0
46.9	688.0
46.91	686.0
46.92	687.0
46.93	707.0
46.94	729.0
46.95	719.0
46.96	697.0
46.97	700.0
46.98	682.0
46.99	697.0
47.0	703.0
47.01	699.0
47.02	712.0
47.03	711.0
47.04	734.0
47.05	727.0
47.06	711.0
47.07	700.0
47.08	695.0
47.09	667.0
47.1	665.0
47.11	681.0
47.12	688.0
47.13	708.0
47.14	715.0
47.15	698.0
47.16	694.0
47.17	705.0
47.18	725.0
47.19	731.0
47.2	735.0
47.21	731.0
47.22	733.0
47.23	740.0
47.24	721.0
47.25	723.0
47.26	735.0
47.27	732.0
47.28	761.0
47.29	785.0
47.3	787.0
47.31	802.0
47.32	823.0
47.33	864.0
47.34	887.0
47.35	902.0
47.36	940.0
47.37	966.0
47.38	964.0
47.39	986.0
47.4	997.0
47.41	973.0
47.42	939.0
47.43	958.0
47.44	971.0
47.45	955.0
47.46	933.0
47.47	930.0
47.48	944.0
47.49	912.0
47.5	887.0
47.51	914.0
47.52	915.0
47.53	891.0
47.54	869.0
47.55	848.0
47.56	822.0
47.57	802.0
47.58	804.0
47.59	812.0
47.6	773.0
47.61	731.0
47.62	736.0
47.63	765.0
47.64	760.0
47.65	755.0
47.66	747.0
47.67	749.0
47.68	751.0
47.69	748.0
47.7	734.0
47.71	737.0
47.72	743.0
47.73	742.0
47.74	720.0
47.75	696.0
47.76	694.0
47.77	695.0
47.78	708.0
47.79	712.0
47.8	716.0
47.81	706.0
47.82	707.0
47.83	697.0
47.84	700.0
47.85	723.0
47.86	736.0
47.87	715.0
47.88	716.0
47.89	715.0
47.9	715.0
47.91	711.0
47.92	708.0
47.93	707.0
47.94	715.0
47.95	703.0
47.96	687.0
47.97	685.0
47.98	682.0
47.99	681.0
48.0	670.0
48.01	679.0
48.02	702.0
48.03	693.0
48.04	710.0
48.05	723.0
48.06	705.0
48.07	712.0
48.08	707.0
48.09	696.0
48.1	702.0
48.11	697.0
48.12	698.0
48.13	688.0
48.14	676.0
48.15	682.0
48.16	687.0
48.17	695.0
48.18	698.0
48.19	676.0
48.2	662.0
48.21	675.0
48.22	692.0
48.23	708.0
48.24	702.0
48.25	705.0
48.26	716.0
48.27	716.0
48.28	715.0
48.29	699.0
48.3	666.0
48.31	652.0
48.32	658.0
48.33	670.0
48.34	708.0
48.35	729.0
48.36	688.0
48.37	666.0
48.38	684.0
48.39	685.0
48.4	669.0
48.41	685.0
48.42	691.0
48.43	687.0
48.44	695.0
48.45	690.0
48.46	672.0
48.47	650.0
48.48	647.0
48.49	678.0
48.5	688.0
48.51	677.0
48.52	681.0
48.53	696.0
48.54	704.0
48.55	685.0
48.56	676.0
48.57	680.0
48.58	687.0
48.59	698.0
48.6	674.0
48.61	656.0
48.62	679.0
48.63	699.0
48.64	693.0
48.65	686.0
48.66	694.0
48.67	699.0
48.68	695.0
48.69	685.0
48.7	689.0
48.71	687.0
48.72	684.0
48.73	692.0
48.74	680.0
48.75	665.0
48.76	674.0
48.77	674.0
48.78	661.0
48.79	668.0
48.8	695.0
48.81	700.0
48.82	678.0
48.83	675.0
48.84	701.0
48.85	705.0
48.86	700.0
48.87	703.0
48.88	691.0
48.89	675.0
48.9	659.0
48.91	661.0
48.92	664.0
48.93	662.0
48.94	667.0
48.95	670.0
48.96	664.0
48.97	670.0
48.98	671.0
48.99	680.0
49.0	687.0
49.01	681.0
49.02	689.0
49.03	692.0
49.04	709.0
49.05	706.0
49.06	703.0
49.07	695.0
49.08	674.0
49.09	670.0
49.1	675.0
49.11	683.0
49.12	704.0
49.13	709.0
49.14	704.0
49.15	697.0
49.16	690.0
49.17	685.0
49.18	664.0
49.19	674.0
49.2	684.0
49.21	688.0
49.22	694.0
49.23	685.0
49.24	684.0
49.25	685.0
49.26	692.0
49.27	696.0
49.28	675.0
49.29	671.0
49.3	696.0
49.31	704.0
49.32	691.0
49.33	702.0
49.34	707.0
49.35	688.0
49.36	690.0
49.37	704.0
49.38	701.0
49.39	694.0
49.4	708.0
49.41	705.0
49.42	688.0
49.43	686.0
49.44	700.0
49.45	706.0
49.46	698.0
49.47	691.0
49.48	700.0
49.49	706.0
49.5	701.0
49.51	716.0
49.52	715.0
49.53	686.0
49.54	678.0
49.55	723.0
49.56	738.0
49.57	737.0
49.58	723.0
49.59	702.0
49.6	698.0
49.61	690.0
49.62	692.0
49.63	710.0
49.64	727.0
49.65	739.0
49.66	750.0
49.67	741.0
49.68	717.0
49.69	707.0
49.7	705.0
49.71	712.0
49.72	725.0
49.73	735.0
49.74	738.0
49.75	742.0
49.76	742.0
49.77	741.0
49.78	726.0
49.79	731.0
49.8	741.0
49.81	721.0
49.82	699.0
49.83	695.0
49.84	711.0
49.85	731.0
49.86	744.0
49.87	730.0
49.88	716.0
49.89	721.0
49.9	741.0
49.91	744.0
49.92	722.0
49.93	709.0
49.94	721.0
49.95	726.0
49.96	722.0
49.97	729.0
49.98	748.0
49.99	748.0
50.0	757.0
50.01	754.0
50.02	738.0
50.03	726.0
50.04	721.0
50.05	729.0
50.06	720.0
50.07	726.0
50.08	732.0
50.09	705.0
50.1	700.0
50.11	721.0
50.12	717.0
50.13	694.0
50.14	685.0
50.15	700.0
50.16	694.0
50.17	694.0
50.18	715.0
50.19	707.0
50.2	697.0
50.21	711.0
50.22	707.0
50.23	683.0
50.24	677.0
50.25	686.0
50.26	694.0
50.27	685.0
50.28	688.0
50.29	695.0
50.3	685.0
50.31	686.0
50.32	687.0
50.33	684.0
50.34	701.0
50.35	707.0
50.36	686.0
50.37	683.0
50.38	690.0
50.39	689.0
50.4	672.0
50.41	666.0
50.42	673.0
50.43	703.0
50.44	737.0
50.45	705.0
50.46	664.0
50.47	649.0
50.48	662.0
50.49	675.0
50.5	669.0
50.51	672.0
50.52	683.0
50.53	679.0
50.54	680.0
50.55	681.0
50.56	689.0
50.57	714.0
50.58	714.0
50.59	691.0
50.6	695.0
50.61	697.0
50.62	685.0
50.63	686.0
50.64	694.0
50.65	687.0
50.66	667.0
50.67	674.0
50.68	681.0
50.69	683.0
50.7	683.0
50.71	685.0
50.72	686.0
50.73	689.0
50.74	701.0
50.75	704.0
50.76	678.0
50.77	655.0
50.78	665.0
50.79	675.0
50.8	674.0
50.81	661.0
50.82	649.0
50.83	659.0
50.84	666.0
50.85	665.0
50.86	659.0
50.87	663.0
50.88	660.0
50.89	657.0
50.9	667.0
50.91	668.0
50.92	660.0
50.93	661.0
50.94	659.0
50.95	654.0
50.96	659.0
50.97	669.0
50.98	675.0
50.99	660.0
51.0	641.0
51.01	640.0
51.02	662.0
51.03	676.0
51.04	674.0
51.05	663.0
51.06	658.0
51.07	674.0
51.08	691.0
51.09	692.0
51.1	676.0
51.11	663.0
51.12	662.0
51.13	641.0
51.14	646.0
51.15	696.0
51.16	704.0
51.17	686.0
51.18	671.0
51.19	673.0
51.2	699.0
51.21	677.0
51.22	637.0
51.23	640.0
51.24	658.0
51.25	667.0
51.26	675.0
51.27	687.0
51.28	678.0
51.29	682.0
51.3	709.0
51.31	693.0
51.32	655.0
51.33	648.0
51.34	669.0
51.35	690.0
51.36	706.0
51.37	690.0
51.38	661.0
51.39	656.0
51.4	669.0
51.41	680.0
51.42	680.0
51.43	685.0
51.44	669.0
51.45	664.0
51.46	687.0
51.47	680.0
51.48	657.0
51.49	652.0
51.5	663.0
51.51	672.0
51.52	672.0
51.53	683.0
51.54	684.0
51.55	654.0
51.56	647.0
51.57	665.0
51.58	676.0
51.59	685.0
51.6	680.0
51.61	667.0
51.62	653.0
51.63	650.0
51.64	656.0
51.65	647.0
51.66	651.0
51.67	672.0
51.68	684.0
51.69	687.0
51.7	686.0
51.71	684.0
51.72	675.0
51.73	663.0
51.74	663.0
51.75	663.0
51.76	640.0
51.77	641.0
51.78	671.0
51.79	692.0
51.8	686.0
51.81	657.0
51.82	654.0
51.83	670.0
51.84	662.0
51.85	650.0
51.86	651.0
51.87	673.0
51.88	670.0
51.89	648.0
51.9	657.0
51.91	667.0
51.92	649.0
51.93	650.0
51.94	660.0
51.95	678.0
51.96	701.0
51.97	693.0
51.98	678.0
51.99	676.0
52.0	662.0
52.01	655.0
52.02	671.0
52.03	665.0
52.04	665.0
52.05	670.0
52.06	672.0
52.07	676.0
52.08	683.0
52.09	674.0
52.1	650.0
52.11	656.0
52.12	679.0
52.13	687.0
52.14	684.0
52.15	684.0
52.16	668.0
52.17	646.0
52.18	642.0
52.19	648.0
52.2	665.0
52.21	666.0
52.22	671.0
52.23	690.0
52.24	667.0
52.25	647.0
52.26	646.0
52.27	647.0
52.28	651.0
52.29	652.0
52.3	666.0
52.31	669.0
52.32	648.0
52.33	651.0
52.34	670.0
52.35	670.0
52.36	687.0
52.37	704.0
52.38	680.0
52.39	644.0
52.4	638.0
52.41	671.0
52.42	685.0
52.43	696.0
52.44	710.0
52.45	691.0
52.46	671.0
52.47	677.0
52.48	681.0
52.49	681.0
52.5	671.0
52.51	663.0
52.52	680.0
52.53	692.0
52.54	678.0
52.55	661.0
52.56	703.0
52.57	719.0
52.58	682.0
52.59	673.0
52.6	663.0
52.61	672.0
52.62	686.0
52.63	679.0
52.64	684.0
52.65	699.0
52.66	684.0
52.67	672.0
52.68	672.0
52.69	662.0
52.7	680.0
52.71	699.0
52.72	690.0
52.73	695.0
52.74	696.0
52.75	675.0
52.76	676.0
52.77	699.0
52.78	698.0
52.79	673.0
52.8	659.0
52.81	662.0
52.82	671.0
52.83	661.0
52.84	650.0
52.85	641.0
52.86	637.0
52.87	655.0
52.88	673.0
52.89	697.0
52.9	689.0
52.91	659.0
52.92	647.0
52.93	650.0
52.94	676.0
52.95	685.0
52.96	664.0
52.97	661.0
52.98	664.0
52.99	683.0
53.0	706.0
53.01	690.0
53.02	687.0
53.03	695.0
53.04	699.0
53.05	701.0
53.06	696.0
53.07	694.0
53.08	689.0
53.09	690.0
53.1	683.0
53.11	690.0
53.12	698.0
53.13	689.0
53.14	697.0
53.15	696.0
53.16	688.0
53.17	691.0
53.18	706.0
53.19	684.0
53.2	644.0
53.21	638.0
53.22	664.0
53.23	679.0
53.24	670.0
53.25	664.0
53.26	683.0
53.27	710.0
53.28	725.0
53.29	703.0
53.3	683.0
53.31	691.0
53.32	703.0
53.33	705.0
53.34	704.0
53.35	692.0
53.36	676.0
53.37	709.0
53.38	722.0
53.39	703.0
53.4	708.0
53.41	702.0
53.42	693.0
53.43	681.0
53.44	699.0
53.45	716.0
53.46	710.0
53.47	696.0
53.48	682.0
53.49	681.0
53.5	691.0
53.51	704.0
53.52	704.0
53.53	688.0
53.54	676.0
53.55	707.0
53.56	725.0
53.57	732.0
53.58	752.0
53.59	760.0
53.6	772.0
53.61	798.0
53.62	802.0
53.63	832.0
53.64	844.0
53.65	845.0
53.66	870.0
53.67	891.0
53.68	897.0
53.69	887.0
53.7	866.0
53.71	854.0
53.72	860.0
53.73	852.0
53.74	823.0
53.75	822.0
53.76	844.0
53.77	818.0
53.78	794.0
53.79	826.0
53.8	819.0
53.81	815.0
53.82	816.0
53.83	789.0
53.84	782.0
53.85	784.0
53.86	771.0
53.87	766.0
53.88	758.0
53.89	725.0
53.9	687.0
53.91	669.0
53.92	692.0
53.93	707.0
53.94	713.0
53.95	715.0
53.96	691.0
53.97	674.0
53.98	678.0
53.99	727.0
54.0	731.0
54.01	692.0
54.02	704.0
54.03	706.0
54.04	698.0
54.05	694.0
54.06	698.0
54.07	690.0
54.08	674.0
54.09	671.0
54.1	683.0
54.11	683.0
54.12	661.0
54.13	664.0
54.14	677.0
54.15	683.0
54.16	710.0
54.17	727.0
54.18	714.0
54.19	697.0
54.2	687.0
54.21	688.0
54.22	691.0
54.23	690.0
54.24	677.0
54.25	692.0
54.26	705.0
54.27	697.0
54.28	690.0
54.29	695.0
54.3	679.0
54.31	675.0
54.32	699.0
54.33	725.0
54.34	716.0
54.35	688.0
54.36	675.0
54.37	707.0
54.38	728.0
54.39	708.0
54.4	695.0
54.41	693.0
54.42	698.0
54.43	702.0
54.44	694.0
54.45	699.0
54.46	708.0
54.47	705.0
54.48	701.0
54.49	704.0
54.5	681.0
54.51	688.0
54.52	703.0
54.53	683.0
54.54	677.0
54.55	675.0
54.56	664.0
54.57	686.0
54.58	719.0
54.59	724.0
54.6	685.0
54.61	659.0
54.62	679.0
54.63	721.0
54.64	715.0
54.65	697.0
54.66	664.0
54.67	666.0
54.68	675.0
54.69	655.0
54.7	654.0
54.71	675.0
54.72	693.0
54.73	694.0
54.74	680.0
54.75	685.0
54.76	709.0
54.77	721.0
54.78	699.0
54.79	680.0
54.8	702.0
54.81	728.0
54.82	717.0
54.83	710.0
54.84	718.0
54.85	708.0
54.86	692.0
54.87	694.0
54.88	699.0
54.89	694.0
54.9	687.0
54.91	678.0
54.92	663.0
54.93	663.0
54.94	701.0
54.95	701.0
54.96	691.0
54.97	690.0
54.98	686.0
54.99	676.0
55.0	676.0
55.01	672.0
55.02	673.0
55.03	682.0
55.04	659.0
55.05	674.0
55.06	695.0
55.07	702.0
55.08	699.0
55.09	692.0
55.1	716.0
55.11	702.0
55.12	691.0
55.13	697.0
55.14	713.0
55.15	729.0
55.16	720.0
55.17	708.0
55.18	701.0
55.19	709.0
55.2	731.0
55.21	735.0
55.22	737.0
55.23	736.0
55.24	704.0
55.25	677.0
55.26	714.0
55.27	720.0
55.28	719.0
55.29	730.0
55.3	717.0
55.31	688.0
55.32	681.0
55.33	698.0
55.34	718.0
55.35	722.0
55.36	700.0
55.37	695.0
55.38	694.0
55.39	681.0
55.4	686.0
55.41	712.0
55.42	708.0
55.43	685.0
55.44	692.0
55.45	717.0
55.46	722.0
55.47	714.0
55.48	694.0
55.49	685.0
55.5	690.0
55.51	706.0
55.52	684.0
55.53	672.0
55.54	679.0
55.55	695.0
55.56	699.0
55.57	719.0
55.58	737.0
55.59	718.0
55.6	709.0
55.61	721.0
55.62	710.0
55.63	689.0
55.64	687.0
55.65	699.0
55.66	724.0
55.67	728.0
55.68	716.0
55.69	712.0
55.7	713.0
55.71	724.0
55.72	737.0
55.73	744.0
55.74	720.0
55.75	718.0
55.76	742.0
55.77	731.0
55.78	726.0
55.79	747.0
55.8	743.0
55.81	711.0
55.82	699.0
55.83	721.0
55.84	731.0
55.85	705.0
55.86	701.0
55.87	711.0
55.88	731.0
55.89	745.0
55.9	746.0
55.91	722.0
55.92	722.0
55.93	752.0
55.94	751.0
55.95	725.0
55.96	720.0
55.97	735.0
55.98	758.0
55.99	771.0
56.0	757.0
56.01	723.0
56.02	728.0
56.03	752.0
56.04	761.0
56.05	744.0
56.06	745.0
56.07	755.0
56.08	748.0
56.09	744.0
56.1	759.0
56.11	777.0
56.12	759.0
56.13	737.0
56.14	737.0
56.15	724.0
56.16	733.0
56.17	737.0
56.18	742.0
56.19	748.0
56.2	737.0
56.21	759.0
56.22	779.0
56.23	777.0
56.24	770.0
56.25	760.0
56.26	755.0
56.27	784.0
56.28	780.0
56.29	755.0
56.3	744.0
56.31	773.0
56.32	781.0
56.33	803.0
56.34	800.0
56.35	768.0
56.36	773.0
56.37	786.0
56.38	787.0
56.39	770.0
56.4	760.0
56.41	763.0
56.42	757.0
56.43	754.0
56.44	777.0
56.45	789.0
56.46	795.0
56.47	786.0
56.48	794.0
56.49	815.0
56.5	777.0
56.51	762.0
56.52	785.0
56.53	789.0
56.54	783.0
56.55	793.0
56.56	819.0
56.57	780.0
56.58	802.0
56.59	842.0
56.6	864.0
56.61	852.0
56.62	819.0
56.63	799.0
56.64	815.0
56.65	834.0
56.66	816.0
56.67	820.0
56.68	815.0
56.69	801.0
56.7	828.0
56.71	845.0
56.72	830.0
56.73	841.0
56.74	874.0
56.75	845.0
56.76	832.0
56.77	842.0
56.78	848.0
56.79	884.0
56.8	895.0
56.81	883.0
56.82	878.0
56.83	858.0
56.84	872.0
56.85	870.0
56.86	862.0
56.87	867.0
56.88	884.0
56.89	880.0
56.9	878.0
56.91	898.0
56.92	926.0
56.93	935.0
56.94	956.0
56.95	953.0
56.96	953.0
56.97	970.0
56.98	965.0
56.99	959.0
57.0	957.0
57.01	970.0
57.02	993.0
57.03	1027.0
57.04	1063.0
57.05	1068.0
57.06	1114.0
57.07	1174.0
57.08	1216.0
57.09	1289.0
57.1	1342.0
57.11	1445.0
57.12	1592.0
57.13	1712.0
57.14	1893.0
57.15	2110.0
57.16	2315.0
57.17	2507.0
57.18	2702.0
57.19	2867.0
57.2	3020.0
57.21	3121.0
57.22	3161.0
57.23	3125.0
57.24	3089.0
57.25	3031.0
57.26	2959.0
57.27	2829.0
57.28	2696.0
57.29	2639.0
57.3	2591.0
57.31	2547.0
57.32	2531.0
57.33	2508.0
57.34	2519.0
57.35	2476.0
57.36	2448.0
57.37	2429.0
57.38	2338.0
57.39	2250.0
57.4	2147.0
57.41	2030.0
57.42	1912.0
57.43	1809.0
57.44	1699.0
57.45	1642.0
57.46	1565.0
57.47	1448.0
57.48	1362.0
57.49	1320.0
57.5	1281.0
57.51	1229.0
57.52	1164.0
57.53	1114.0
57.54	1077.0
57.55	1056.0
57.56	1043.0
57.57	1024.0
57.58	1020.0
57.59	1001.0
57.6	957.0
57.61	959.0
57.62	934.0
57.63	927.0
57.64	914.0
57.65	891.0
57.66	884.0
57.67	871.0
57.68	874.0
57.69	886.0
57.7	905.0
57.71	899.0
57.72	874.0
57.73	857.0
57.74	854.0
57.75	847.0
57.76	828.0
57.77	805.0
57.78	794.0
57.79	829.0
57.8	792.0
57.81	789.0
57.82	798.0
57.83	801.0
57.84	803.0
57.85	802.0
57.86	823.0
57.87	817.0
57.88	814.0
57.89	789.0
57.9	768.0
57.91	767.0
57.92	777.0
57.93	784.0
57.94	797.0
57.95	790.0
57.96	773.0
57.97	780.0
57.98	767.0
57.99	771.0
58.0	769.0
58.01	761.0
58.02	765.0
58.03	789.0
58.04	765.0
58.05	758.0
58.06	774.0
58.07	770.0
58.08	765.0
58.09	775.0
58.1	757.0
58.11	751.0
58.12	750.0
58.13	747.0
58.14	779.0
58.15	793.0
58.16	771.0
58.17	738.0
58.18	729.0
58.19	733.0
58.2	765.0
58.21	763.0
58.22	744.0
58.23	745.0
58.24	728.0
58.25	736.0
58.26	716.0
58.27	725.0
58.28	740.0
58.29	746.0
58.3	746.0
58.31	750.0
58.32	735.0
58.33	716.0
58.34	706.0
58.35	717.0
58.36	733.0
58.37	746.0
58.38	731.0
58.39	737.0
58.4	736.0
58.41	723.0
58.42	698.0
58.43	704.0
58.44	716.0
58.45	723.0
58.46	727.0
58.47	721.0
58.48	742.0
58.49	743.0
58.5	731.0
58.51	733.0
58.52	719.0
58.53	726.0
58.54	731.0
58.55	715.0
58.56	693.0
58.57	690.0
58.58	702.0
58.59	719.0
58.6	731.0
58.61	729.0
58.62	696.0
58.63	720.0
58.64	743.0
58.65	755.0
58.66	742.0
58.67	741.0
58.68	740.0
58.69	732.0
58.7	741.0
58.71	744.0
58.72	744.0
58.73	738.0
58.74	743.0
58.75	748.0
58.76	736.0
58.77	729.0
58.78	715.0
58.79	703.0
58.8	708.0
58.81	714.0
58.82	731.0
58.83	743.0
58.84	722.0
58.85	715.0
58.86	720.0
58.87	697.0
58.88	696.0
58.89	715.0
58.9	718.0
58.91	709.0
58.92	735.0
58.93	747.0
58.94	752.0
58.95	753.0
58.96	727.0
58.97	716.0
58.98	705.0
58.99	709.0
59.0	715.0
59.01	719.0
59.02	734.0
59.03	727.0
59.04	745.0
59.05	761.0
59.06	731.0
59.07	733.0
59.08	757.0
59.09	768.0
59.1	739.0
59.11	741.0
59.12	744.0
59.13	738.0
59.14	687.0
59.15	698.0
59.16	714.0
59.17	736.0
59.18	730.0
59.19	742.0
59.2	754.0
59.21	756.0
59.22	743.0
59.23	744.0
59.24	736.0
59.25	733.0
59.26	755.0
59.27	760.0
59.28	762.0
59.29	746.0
59.3	759.0
59.31	752.0
59.32	762.0
59.33	732.0
59.34	706.0
59.35	704.0
59.36	725.0
59.37	769.0
59.38	766.0
59.39	733.0
59.4	710.0
59.41	717.0
59.42	761.0
59.43	775.0
59.44	754.0
59.45	747.0
59.46	759.0
59.47	749.0
59.48	736.0
59.49	744.0
59.5	741.0
59.51	773.0
59.52	781.0
59.53	763.0
59.54	746.0
59.55	752.0
59.56	720.0
59.57	696.0
59.58	710.0
59.59	739.0
59.6	744.0
59.61	745.0
59.62	758.0
59.63	763.0
59.64	770.0
59.65	761.0
59.66	764.0
59.67	742.0
59.68	716.0
59.69	718.0
59.7	703.0
59.71	705.0
59.72	718.0
59.73	715.0
59.74	719.0
59.75	747.0
59.76	742.0
59.77	720.0
59.78	734.0
59.79	756.0
59.8	742.0
59.81	708.0
59.82	702.0
59.83	718.0
59.84	710.0
59.85	704.0
59.86	720.0
59.87	716.0
59.88	696.0
59.89	713.0
59.9	739.0
59.91	703.0
59.92	669.0
59.93	708.0
59.94	736.0
59.95	735.0
59.96	712.0
59.97	735.0
59.98	739.0
59.99	743.0
60.0	721.0
60.01	737.0
60.02	708.0
60.03	719.0
60.04	721.0
60.05	724.0
60.06	730.0
60.07	726.0
60.08	714.0
60.09	719.0
60.1	746.0
60.11	734.0
60.12	718.0
60.13	721.0
60.14	707.0
60.15	684.0
60.16	707.0
60.17	727.0
60.18	750.0
60.19	737.0
60.2	728.0
60.21	707.0
60.22	728.0
60.23	745.0
60.24	756.0
60.25	738.0
60.26	738.0
60.27	734.0
60.28	735.0
60.29	759.0
60.3	739.0
60.31	736.0
60.32	716.0
60.33	719.0
60.34	743.0
60.35	764.0
60.36	749.0
60.37	741.0
60.38	756.0
60.39	762.0
60.4	747.0
60.41	717.0
60.42	715.0
60.43	721.0
60.44	717.0
60.45	713.0
60.46	723.0
60.47	723.0
60.48	726.0
60.49	713.0
60.5	734.0
60.51	794.0
60.52	784.0
60.53	773.0
60.54	771.0
60.55	769.0
60.56	761.0
60.57	733.0
60.58	753.0
60.59	773.0
60.6	751.0
60.61	730.0
60.62	736.0
60.63	730.0
60.64	715.0
60.65	724.0
60.66	746.0
60.67	735.0
60.68	744.0
60.69	747.0
60.7	753.0
60.71	747.0
60.72	769.0
60.73	763.0
60.74	762.0
60.75	729.0
60.76	730.0
60.77	739.0
60.78	739.0
60.79	760.0
60.8	771.0
60.81	759.0
60.82	772.0
60.83	744.0
60.84	744.0
60.85	739.0
60.86	743.0
60.87	748.0
60.88	742.0
60.89	739.0
60.9	763.0
60.91	755.0
60.92	739.0
60.93	782.0
60.94	787.0
60.95	746.0
60.96	704.0
60.97	732.0
60.98	774.0
60.99	757.0
61.0	743.0
61.01	734.0
61.02	710.0
61.03	739.0
61.04	735.0
61.05	741.0
61.06	756.0
61.07	764.0
61.08	746.0
61.09	746.0
61.1	749.0
61.11	729.0
61.12	690.0
61.13	704.0
61.14	733.0
61.15	756.0
61.16	752.0
61.17	726.0
61.18	720.0
61.19	728.0
61.2	738.0
61.21	745.0
61.22	751.0
61.23	768.0
61.24	767.0
61.25	699.0
61.26	725.0
61.27	758.0
61.28	745.0
61.29	746.0
61.3	750.0
61.31	745.0
61.32	730.0
61.33	707.0
61.34	695.0
61.35	696.0
61.36	714.0
61.37	701.0
61.38	739.0
61.39	728.0
61.4	724.0
61.41	715.0
61.42	723.0
61.43	747.0
61.44	718.0
61.45	709.0
61.46	740.0
61.47	779.0
61.48	774.0
61.49	730.0
61.5	765.0
61.51	765.0
61.52	729.0
61.53	728.0
61.54	744.0
61.55	759.0
61.56	727.0
61.57	737.0
61.58	743.0
61.59	761.0
61.6	725.0
61.61	756.0
61.62	758.0
61.63	759.0
61.64	755.0
61.65	740.0
61.66	704.0
61.67	720.0
61.68	772.0
61.69	761.0
61.7	753.0
61.71	763.0
61.72	759.0
61.73	755.0
61.74	745.0
61.75	766.0
61.76	738.0
61.77	755.0
61.78	780.0
61.79	770.0
61.8	758.0
61.81	783.0
61.82	768.0
61.83	737.0
61.84	753.0
61.85	770.0
61.86	728.0
61.87	769.0
61.88	807.0
61.89	785.0
61.9	769.0
61.91	773.0
61.92	791.0
61.93	774.0
61.94	747.0
61.95	783.0
61.96	776.0
61.97	763.0
61.98	794.0
61.99	791.0
62.0	823.0
62.01	820.0
62.02	798.0
62.03	775.0
62.04	789.0
62.05	815.0
62.06	868.0
62.07	872.0
62.08	827.0
62.09	822.0
62.1	847.0
62.11	822.0
62.12	819.0
62.13	832.0
62.14	830.0
62.15	856.0
62.16	855.0
62.17	846.0
62.18	834.0
62.19	829.0
62.2	823.0
62.21	837.0
62.22	854.0
62.23	834.0
62.24	886.0
62.25	881.0
62.26	875.0
62.27	914.0
62.28	947.0
62.29	953.0
62.3	929.0
62.31	939.0
62.32	921.0
62.33	937.0
62.34	915.0
62.35	900.0
62.36	954.0
62.37	1040.0
62.38	1025.0
62.39	996.0
62.4	987.0
62.41	982.0
62.42	1017.0
62.43	1016.0
62.44	1042.0
62.45	1026.0
62.46	1023.0
62.47	1063.0
62.48	1059.0
62.49	1024.0
62.5	1052.0
62.51	1104.0
62.52	1094.0
62.53	1058.0
62.54	1054.0
62.55	1081.0
62.56	1123.0
62.57	1126.0
62.58	1131.0
62.59	1142.0
62.6	1162.0
62.61	1185.0
62.62	1214.0
62.63	1205.0
62.64	1218.0
62.65	1285.0
62.66	1303.0
62.67	1402.0
62.68	1400.0
62.69	1437.0
62.7	1514.0
62.71	1610.0
62.72	1817.0
62.73	2008.0
62.74	2185.0
62.75	2428.0
62.76	2736.0
62.77	3101.0
62.78	3521.0
62.79	3820.0
62.8	4131.0
62.81	4400.0
62.82	4477.0
62.83	4611.0
62.84	4561.0
62.85	4395.0
62.86	4271.0
62.87	4182.0
62.88	3958.0
62.89	3807.0
62.9	3579.0
62.91	3530.0
62.92	3483.0
62.93	3394.0
62.94	3456.0
62.95	3457.0
62.96	3389.0
62.97	3411.0
62.98	3398.0
62.99	3425.0
63.0	3363.0
63.01	3242.0
63.02	3137.0
63.03	3098.0
63.04	2895.0
63.05	2710.0
63.06	2575.0
63.07	2445.0
63.08	2248.0
63.09	2148.0
63.1	2034.0
63.11	1942.0
63.12	1809.0
63.13	1739.0
63.14	1681.0
63.15	1631.0
63.16	1535.0
63.17	1446.0
63.18	1355.0
63.19	1335.0
63.2	1314.0
63.21	1281.0
63.22	1257.0
63.23	1154.0
63.24	1132.0
63.25	1157.0
63.26	1136.0
63.27	1144.0
63.28	1151.0
63.29	1111.0
63.3	1073.0
63.31	1049.0
63.32	1031.0
63.33	1021.0
63.34	1028.0
63.35	1010.0
63.36	998.0
63.37	976.0
63.38	935.0
63.39	978.0
63.4	946.0
63.41	947.0
63.42	936.0
63.43	890.0
63.44	886.0
63.45	908.0
63.46	922.0
63.47	917.0
63.48	899.0
63.49	888.0
63.5	854.0
63.51	866.0
63.52	885.0
63.53	920.0
63.54	853.0
63.55	827.0
63.56	874.0
63.57	862.0
63.58	841.0
63.59	828.0
63.6	822.0
63.61	843.0
63.62	866.0
63.63	864.0
63.64	855.0
63.65	854.0
63.66	803.0
63.67	795.0
63.68	839.0
63.69	822.0
63.7	808.0
63.71	815.0
63.72	794.0
63.73	794.0
63.74	746.0
63.75	759.0
63.76	750.0
63.77	764.0
63.78	761.0
63.79	761.0
63.8	782.0
63.81	762.0
63.82	750.0
63.83	783.0
63.84	777.0
63.85	759.0
63.86	784.0
63.87	805.0
63.88	780.0
63.89	767.0
63.9	772.0
63.91	778.0
63.92	758.0
63.93	762.0
63.94	769.0
63.95	769.0
63.96	756.0
63.97	788.0
63.98	796.0
63.99	794.0
64.0	755.0
64.01	758.0
64.02	767.0
64.03	780.0
64.04	743.0
64.05	752.0
64.06	755.0
64.07	755.0
64.08	764.0
64.09	758.0
64.1	737.0
64.11	727.0
64.12	735.0
64.13	712.0
64.14	749.0
64.15	791.0
64.16	742.0
64.17	717.0
64.18	735.0
64.19	735.0
64.2	715.0
64.21	710.0
64.22	715.0
64.23	707.0
64.24	725.0
64.25	738.0
64.26	739.0
64.27	723.0
64.28	752.0
64.29	722.0
64.3	731.0
64.31	716.0
64.32	715.0
64.33	719.0
64.34	718.0
64.35	707.0
64.36	682.0
64.37	724.0
64.38	731.0
64.39	743.0
64.4	738.0
64.41	743.0
64.42	755.0
64.43	745.0
64.44	755.0
64.45	717.0
64.46	720.0
64.47	714.0
64.48	748.0
64.49	746.0
64.5	711.0
64.51	706.0
64.52	719.0
64.53	727.0
64.54	729.0
64.55	708.0
64.56	721.0
64.57	716.0
64.58	714.0
64.59	726.0
64.6	741.0
64.61	743.0
64.62	708.0
64.63	725.0
64.64	734.0
64.65	729.0
64.66	689.0
64.67	739.0
64.68	725.0
64.69	728.0
64.7	719.0
64.71	714.0
64.72	714.0
64.73	712.0
64.74	701.0
64.75	694.0
64.76	676.0
64.77	685.0
64.78	732.0
64.79	734.0
64.8	719.0
64.81	697.0
64.82	681.0
64.83	695.0
64.84	716.0
64.85	690.0
64.86	735.0
64.87	728.0
64.88	737.0
64.89	707.0
64.9	735.0
64.91	747.0
64.92	724.0
64.93	684.0
64.94	696.0
64.95	735.0
64.96	755.0
64.97	716.0
64.98	726.0
64.99	710.0
65.0	722.0
65.01	725.0
65.02	713.0
65.03	724.0
65.04	715.0
65.05	694.0
65.06	718.0
65.07	719.0
65.08	700.0
65.09	728.0
65.1	717.0
65.11	697.0
65.12	718.0
65.13	699.0
65.14	723.0
65.15	725.0
65.16	710.0
65.17	723.0
65.18	747.0
65.19	732.0
65.2	737.0
65.21	748.0
65.22	706.0
65.23	727.0
65.24	753.0
65.25	730.0
65.26	707.0
65.27	697.0
65.28	711.0
65.29	694.0
65.3	705.0
65.31	685.0
65.32	691.0
65.33	741.0
65.34	727.0
65.35	710.0
65.36	707.0
65.37	713.0
65.38	698.0
65.39	710.0
65.4	734.0
65.41	733.0
65.42	732.0
65.43	724.0
65.44	676.0
65.45	673.0
65.46	704.0
65.47	753.0
65.48	729.0
65.49	754.0
65.5	755.0
65.51	716.0
65.52	740.0
65.53	730.0
65.54	746.0
65.55	740.0
65.56	705.0
65.57	690.0
65.58	731.0
65.59	728.0
65.6	731.0
65.61	695.0
65.62	724.0
65.63	736.0
65.64	733.0
65.65	759.0
65.66	757.0
65.67	763.0
65.68	707.0
65.69	739.0
65.7	720.0
65.71	734.0
65.72	760.0
65.73	742.0
65.74	751.0
65.75	762.0
65.76	754.0
65.77	741.0
65.78	759.0
65.79	762.0
65.8	757.0
65.81	746.0
65.82	753.0
65.83	768.0
65.84	774.0
65.85	799.0
65.86	763.0
65.87	765.0
65.88	803.0
65.89	812.0
65.9	815.0
65.91	842.0
65.92	845.0
65.93	849.0
65.94	867.0
65.95	925.0
65.96	954.0
65.97	963.0
65.98	981.0
65.99	1042.0
66.0	1124.0
66.01	1189.0
66.02	1265.0
66.03	1324.0
66.04	1281.0
66.05	1340.0
66.06	1380.0
66.07	1390.0
66.08	1323.0
66.09	1293.0
66.1	1335.0
66.11	1335.0
66.12	1299.0
66.13	1267.0
66.14	1238.0
66.15	1203.0
66.16	1203.0
66.17	1245.0
66.18	1221.0
66.19	1172.0
66.2	1220.0
66.21	1236.0
66.22	1223.0
66.23	1207.0
66.24	1209.0
66.25	1196.0
66.26	1177.0
66.27	1181.0
66.28	1169.0
66.29	1121.0
66.3	1092.0
66.31	1064.0
66.32	1021.0
66.33	1028.0
66.34	989.0
66.35	962.0
66.36	932.0
66.37	938.0
66.38	924.0
66.39	873.0
66.4	889.0
66.41	855.0
66.42	837.0
66.43	839.0
66.44	862.0
66.45	858.0
66.46	834.0
66.47	824.0
66.48	820.0
66.49	829.0
66.5	860.0
66.51	813.0
66.52	843.0
66.53	808.0
66.54	806.0
66.55	750.0
66.56	785.0
66.57	779.0
66.58	786.0
66.59	796.0
66.6	788.0
66.61	782.0
66.62	745.0
66.63	754.0
66.64	797.0
66.65	770.0
66.66	758.0
66.67	760.0
66.68	750.0
66.69	733.0
66.7	726.0
66.71	739.0
66.72	750.0
66.73	775.0
66.74	723.0
66.75	751.0
66.76	739.0
66.77	752.0
66.78	762.0
66.79	783.0
66.8	762.0
66.81	696.0
66.82	712.0
66.83	745.0
66.84	753.0
66.85	747.0
66.86	726.0
66.87	709.0
66.88	718.0
66.89	685.0
66.9	696.0
66.91	701.0
66.92	698.0
66.93	714.0
66.94	729.0
66.95	750.0
66.96	732.0
66.97	691.0
66.98	690.0
66.99	719.0
67.0	711.0
67.01	721.0
67.02	726.0
67.03	705.0
67.04	720.0
67.05	740.0
67.06	752.0
67.07	760.0
67.08	725.0
67.09	745.0
67.1	756.0
67.11	771.0
67.12	758.0
67.13	743.0
67.14	748.0
67.15	713.0
67.16	690.0
67.17	694.0
67.18	745.0
67.19	706.0
67.2	690.0
67.21	722.0
67.22	739.0
67.23	709.0
67.24	715.0
67.25	731.0
67.26	718.0
67.27	707.0
67.28	691.0
67.29	704.0
67.3	708.0
67.31	706.0
67.32	724.0
67.33	716.0
67.34	678.0
67.35	707.0
67.36	693.0
67.37	727.0
67.38	734.0
67.39	734.0
67.4	701.0
67.41	692.0
67.42	717.0
67.43	711.0
67.44	705.0
67.45	709.0
67.46	713.0
67.47	684.0
67.48	669.0
67.49	692.0
67.5	707.0
67.51	665.0
67.52	681.0
67.53	724.0
67.54	723.0
67.55	719.0
67.56	701.0
67.57	712.0
67.58	706.0
67.59	708.0
67.6	732.0
67.61	676.0
67.62	695.0
67.63	680.0
67.64	703.0
67.65	720.0
67.66	691.0
67.67	716.0
67.68	742.0
67.69	710.0
67.7	687.0
67.71	716.0
67.72	735.0
67.73	717.0
67.74	741.0
67.75	742.0
67.76	719.0
67.77	719.0
67.78	685.0
67.79	688.0
67.8	698.0
67.81	747.0
67.82	721.0
67.83	732.0
67.84	706.0
67.85	711.0
67.86	730.0
67.87	754.0
67.88	725.0
67.89	705.0
67.9	686.0
67.91	711.0
67.92	722.0
67.93	695.0
67.94	695.0
67.95	713.0
67.96	711.0
67.97	691.0
67.98	711.0
67.99	691.0
68.0	727.0
68.01	719.0
68.02	699.0
68.03	710.0
68.04	705.0
68.05	711.0
68.06	706.0
68.07	705.0
68.08	722.0
68.09	739.0
68.1	702.0
68.11	678.0
68.12	705.0
68.13	700.0
68.14	681.0
68.15	716.0
68.16	710.0
68.17	677.0
68.18	667.0
68.19	678.0
68.2	700.0
68.21	725.0
68.22	716.0
68.23	705.0
68.24	707.0
68.25	708.0
68.26	714.0
68.27	707.0
68.28	662.0
68.29	684.0
68.3	719.0
68.31	703.0
68.32	705.0
68.33	725.0
68.34	699.0
68.35	682.0
68.36	683.0
68.37	712.0
68.38	703.0
68.39	688.0
68.4	719.0
68.41	693.0
68.42	720.0
68.43	739.0
68.44	709.0
68.45	689.0
68.46	697.0
68.47	706.0
68.48	715.0
68.49	705.0
68.5	677.0
68.51	690.0
68.52	709.0
68.53	721.0
68.54	707.0
68.55	694.0
68.56	710.0
68.57	701.0
68.58	708.0
68.59	733.0
68.6	720.0
68.61	692.0
68.62	676.0
68.63	656.0
68.64	691.0
68.65	695.0
68.66	669.0
68.67	682.0
68.68	679.0
68.69	692.0
68.7	708.0
68.71	711.0
68.72	719.0
68.73	730.0
68.74	722.0
68.75	709.0
68.76	690.0
68.77	688.0
68.78	678.0
68.79	685.0
68.8	694.0
68.81	696.0
68.82	686.0
68.83	674.0
68.84	700.0
68.85	722.0
68.86	715.0
68.87	695.0
68.88	711.0
68.89	702.0
68.9	710.0
68.91	675.0
68.92	698.0
68.93	727.0
68.94	727.0
68.95	708.0
68.96	678.0
68.97	691.0
68.98	714.0
68.99	688.0
69.0	695.0
69.01	706.0
69.02	709.0
69.03	725.0
69.04	732.0
69.05	677.0
69.06	706.0
69.07	714.0
69.08	679.0
69.09	724.0
69.1	719.0
69.11	698.0
69.12	731.0
69.13	714.0
69.14	718.0
69.15	716.0
69.16	705.0
69.17	695.0
69.18	717.0
69.19	724.0
69.2	696.0
69.21	684.0
69.22	669.0
69.23	708.0
69.24	711.0
69.25	714.0
69.26	727.0
69.27	714.0
69.28	677.0
69.29	698.0
69.3	728.0
69.31	694.0
69.32	738.0
69.33	732.0
69.34	705.0
69.35	718.0
69.36	712.0
69.37	715.0
69.38	714.0
69.39	700.0
69.4	716.0
69.41	732.0
69.42	687.0
69.43	687.0
69.44	711.0
69.45	703.0
69.46	690.0
69.47	696.0
69.48	707.0
69.49	688.0
69.5	711.0
69.51	686.0
69.52	695.0
69.53	689.0
69.54	660.0
69.55	652.0
69.56	656.0
69.57	695.0
69.58	696.0
69.59	669.0
69.6	667.0
69.61	673.0
69.62	690.0
69.63	676.0
69.64	711.0
69.65	690.0
69.66	670.0
69.67	684.0
69.68	699.0
69.69	687.0
69.7	678.0
69.71	695.0
69.72	691.0
69.73	682.0
69.74	699.0
69.75	670.0
69.76	669.0
69.77	697.0
69.78	672.0
69.79	670.0
69.8	653.0
69.81	659.0
69.82	661.0
69.83	675.0
69.84	691.0
69.85	693.0
69.86	677.0
69.87	667.0
69.88	643.0
69.89	630.0
69.9	665.0
69.91	675.0
69.92	665.0
69.93	666.0
69.94	672.0
69.95	678.0
69.96	671.0
69.97	651.0
69.98	658.0
69.99	682.0
70.0	681.0
70.01	678.0
70.02	678.0
70.03	669.0
70.04	670.0
70.05	678.0
70.06	678.0
70.07	698.0
70.08	676.0
70.09	644.0
70.1	668.0
70.11	679.0
70.12	680.0
70.13	669.0
70.14	687.0
70.15	681.0
70.16	687.0
70.17	658.0
70.18	643.0
70.19	676.0
70.2	694.0
70.21	688.0
70.22	710.0
70.23	710.0
70.24	690.0
70.25	670.0
70.26	667.0
70.27	688.0
70.28	671.0
70.29	698.0
70.3	702.0
70.31	684.0
70.32	708.0
70.33	698.0
70.34	703.0
70.35	704.0
70.36	654.0
70.37	640.0
70.38	635.0
70.39	668.0
70.4	702.0
70.41	689.0
70.42	679.0
70.43	655.0
70.44	651.0
70.45	645.0
70.46	677.0
70.47	651.0
70.48	673.0
70.49	687.0
70.5	674.0
70.51	682.0
70.52	694.0
70.53	697.0
70.54	698.0
70.55	655.0
70.56	696.0
70.57	707.0
70.58	712.0
70.59	701.0
70.6	683.0
70.61	686.0
70.62	697.0
70.63	692.0
70.64	686.0
70.65	684.0
70.66	676.0
70.67	689.0
70.68	678.0
70.69	674.0
70.7	679.0
70.71	696.0
70.72	678.0
70.73	681.0
70.74	686.0
70.75	669.0
70.76	698.0
70.77	692.0
70.78	683.0
70.79	666.0
70.8	699.0
70.81	677.0
70.82	657.0
70.83	655.0
70.84	668.0
70.85	679.0
70.86	674.0
70.87	676.0
70.88	674.0
70.89	690.0
70.9	698.0
70.91	677.0
70.92	681.0
70.93	699.0
70.94	673.0
70.95	699.0
70.96	676.0
70.97	708.0
70.98	713.0
70.99	695.0
71.0	671.0
71.01	703.0
71.02	688.0
71.03	674.0
71.04	680.0
71.05	666.0
71.06	649.0
71.07	658.0
71.08	703.0
71.09	695.0
71.1	678.0
71.11	700.0
71.12	690.0
71.13	663.0
71.14	664.0
71.15	717.0
71.16	709.0
71.17	699.0
71.18	743.0
71.19	700.0
71.2	698.0
71.21	699.0
71.22	686.0
71.23	697.0
71.24	719.0
71.25	746.0
71.26	720.0
71.27	721.0
71.28	750.0
71.29	755.0
71.3	757.0
71.31	744.0
71.32	741.0
71.33	718.0
71.34	722.0
71.35	736.0
71.36	736.0
71.37	692.0
71.38	715.0
71.39	739.0
71.4	718.0
71.41	696.0
71.42	696.0
71.43	685.0
71.44	686.0
71.45	692.0
71.46	685.0
71.47	680.0
71.48	709.0
71.49	686.0
71.5	681.0
71.51	674.0
71.52	669.0
71.53	686.0
71.54	706.0
71.55	732.0
71.56	702.0
71.57	693.0
71.58	702.0
71.59	685.0
71.6	700.0
71.61	717.0
71.62	702.0
71.63	662.0
71.64	682.0
71.65	692.0
71.66	715.0
71.67	702.0
71.68	710.0
71.69	697.0
71.7	685.0
71.71	693.0
71.72	688.0
71.73	694.0
71.74	716.0
71.75	714.0
71.76	686.0
71.77	685.0
71.78	679.0
71.79	686.0
71.8	672.0
71.81	709.0
71.82	675.0
71.83	670.0
71.84	654.0
71.85	676.0
71.86	686.0
71.87	684.0
71.88	654.0
71.89	653.0
71.9	667.0
71.91	670.0
71.92	675.0
71.93	659.0
71.94	674.0
71.95	652.0
71.96	648.0
71.97	653.0
71.98	683.0
71.99	693.0
72.0	671.0
72.01	716.0
72.02	681.0
72.03	704.0
72.04	673.0
72.05	687.0
72.06	706.0
72.07	683.0
72.08	683.0
72.09	696.0
72.1	668.0
72.11	662.0
72.12	706.0
72.13	700.0
72.14	657.0
72.15	673.0
72.16	695.0
72.17	709.0
72.18	671.0
72.19	683.0
72.2	713.0
72.21	737.0
72.22	702.0
72.23	692.0
72.24	639.0
72.25	646.0
72.26	697.0
72.27	714.0
72.28	684.0
72.29	698.0
72.3	693.0
72.31	668.0
72.32	677.0
72.33	696.0
72.34	695.0
72.35	676.0
72.36	674.0
72.37	675.0
72.38	668.0
72.39	696.0
72.4	662.0
72.41	668.0
72.42	689.0
72.43	674.0
72.44	644.0
72.45	649.0
72.46	686.0
72.47	673.0
72.48	668.0
72.49	667.0
72.5	654.0
72.51	667.0
72.52	666.0
72.53	678.0
72.54	678.0
72.55	681.0
72.56	659.0
72.57	642.0
72.58	658.0
72.59	704.0
72.6	674.0
72.61	665.0
72.62	696.0
72.63	694.0
72.64	701.0
72.65	666.0
72.66	667.0
72.67	638.0
72.68	682.0
72.69	691.0
72.7	685.0
72.71	652.0
72.72	663.0
72.73	643.0
72.74	630.0
72.75	657.0
72.76	679.0
72.77	693.0
72.78	702.0
72.79	661.0
72.8	653.0
72.81	687.0
72.82	677.0
72.83	666.0
72.84	671.0
72.85	692.0
72.86	696.0
72.87	668.0
72.88	683.0
72.89	684.0
72.9	696.0
72.91	683.0
72.92	700.0
72.93	678.0
72.94	690.0
72.95	679.0
72.96	674.0
72.97	694.0
72.98	684.0
72.99	674.0
73.0	650.0
73.01	671.0
73.02	674.0
73.03	667.0
73.04	659.0
73.05	668.0
73.06	686.0
73.07	657.0
73.08	641.0
73.09	675.0
73.1	666.0
73.11	674.0
73.12	645.0
73.13	641.0
73.14	657.0
73.15	697.0
73.16	717.0
73.17	691.0
73.18	685.0
73.19	682.0
73.2	661.0
73.21	695.0
73.22	695.0
73.23	667.0
73.24	665.0
73.25	691.0
73.26	663.0
73.27	667.0
73.28	662.0
73.29	667.0
73.3	677.0
73.31	687.0
73.32	693.0
73.33	700.0
73.34	673.0
73.35	680.0
73.36	710.0
73.37	718.0
73.38	685.0
73.39	668.0
73.4	694.0
73.41	699.0
73.42	667.0
73.43	656.0
73.44	682.0
73.45	677.0
73.46	680.0
73.47	689.0
73.48	692.0
73.49	702.0
73.5	679.0
73.51	698.0
73.52	686.0
73.53	692.0
73.54	705.0
73.55	700.0
73.56	719.0
73.57	685.0
73.58	687.0
73.59	720.0
73.6	737.0
73.61	713.0
73.62	690.0
73.63	695.0
73.64	721.0
73.65	710.0
73.66	684.0
73.67	727.0
73.68	725.0
73.69	671.0
73.7	687.0
73.71	722.0
73.72	719.0
73.73	711.0
73.74	693.0
73.75	708.0
73.76	687.0
73.77	671.0
73.78	699.0
73.79	691.0
73.8	693.0
73.81	707.0
73.82	710.0
73.83	710.0
73.84	746.0
73.85	743.0
73.86	726.0
73.87	665.0
73.88	672.0
73.89	704.0
73.9	702.0
73.91	714.0
73.92	701.0
73.93	732.0
73.94	729.0
73.95	715.0
73.96	732.0
73.97	748.0
73.98	735.0
73.99	705.0
74.0	725.0
74.01	740.0
74.02	725.0
74.03	741.0
74.04	760.0
74.05	766.0
74.06	751.0
74.07	744.0
74.08	725.0
74.09	743.0
74.1	735.0
74.11	725.0
74.12	742.0
74.13	744.0
74.14	725.0
74.15	742.0
74.16	765.0
74.17	800.0
74.18	763.0
74.19	786.0
74.2	797.0
74.21	823.0
74.22	840.0
74.23	835.0
74.24	908.0
74.25	933.0
74.26	974.0
74.27	1048.0
74.28	1076.0
74.29	1115.0
74.3	1147.0
74.31	1152.0
74.32	1183.0
74.33	1210.0
74.34	1196.0
74.35	1186.0
74.36	1240.0
74.37	1194.0
74.38	1080.0
74.39	1096.0
74.4	1094.0
74.41	1078.0
74.42	1058.0
74.43	1046.0
74.44	1058.0
74.45	1055.0
74.46	1002.0
74.47	960.0
74.48	995.0
74.49	1011.0
74.5	1032.0
74.51	1051.0
74.52	1058.0
74.53	1040.0
74.54	1004.0
74.55	1030.0
74.56	999.0
74.57	1012.0
74.58	988.0
74.59	967.0
74.6	956.0
74.61	941.0
74.62	921.0
74.63	920.0
74.64	923.0
74.65	889.0
74.66	846.0
74.67	843.0
74.68	822.0
74.69	801.0
74.7	799.0
74.71	808.0
74.72	811.0
74.73	800.0
74.74	799.0
74.75	771.0
74.76	800.0
74.77	783.0
74.78	724.0
74.79	756.0
74.8	786.0
74.81	782.0
74.82	749.0
74.83	727.0
74.84	731.0
74.85	737.0
74.86	723.0
74.87	738.0
74.88	736.0
74.89	719.0
74.9	740.0
74.91	758.0
74.92	746.0
74.93	748.0
74.94	742.0
74.95	731.0
74.96	734.0
74.97	717.0
74.98	717.0
74.99	700.0
75.0	723.0
75.01	723.0
75.02	736.0
75.03	743.0
75.04	723.0
75.05	721.0
75.06	717.0
75.07	740.0
75.08	756.0
75.09	744.0
75.1	717.0
75.11	721.0
75.12	704.0
75.13	701.0
75.14	718.0
75.15	694.0
75.16	709.0
75.17	695.0
75.18	731.0
75.19	740.0
75.2	766.0
75.21	768.0
75.22	785.0
75.23	817.0
75.24	791.0
75.25	814.0
75.26	895.0
75.27	903.0
75.28	901.0
75.29	930.0
75.3	965.0
75.31	966.0
75.32	937.0
75.33	970.0
75.34	1011.0
75.35	1015.0
75.36	1001.0
75.37	964.0
75.38	937.0
75.39	925.0
75.4	933.0
75.41	920.0
75.42	934.0
75.43	921.0
75.44	914.0
75.45	916.0
75.46	916.0
75.47	915.0
75.48	908.0
75.49	916.0
75.5	911.0
75.51	910.0
75.52	881.0
75.53	876.0
75.54	908.0
75.55	893.0
75.56	874.0
75.57	878.0
75.58	861.0
75.59	866.0
75.6	856.0
75.61	883.0
75.62	847.0
75.63	848.0
75.64	873.0
75.65	819.0
75.66	811.0
75.67	811.0
75.68	804.0
75.69	774.0
75.7	786.0
75.71	786.0
75.72	751.0
75.73	740.0
75.74	733.0
75.75	761.0
75.76	753.0
75.77	738.0
75.78	765.0
75.79	742.0
75.8	708.0
75.81	728.0
75.82	705.0
75.83	732.0
75.84	749.0
75.85	732.0
75.86	738.0
75.87	745.0
75.88	723.0
75.89	717.0
75.9	696.0
75.91	705.0
75.92	723.0
75.93	712.0
75.94	751.0
75.95	760.0
75.96	735.0
75.97	708.0
75.98	680.0
75.99	696.0
76.0	718.0
76.01	700.0
76.02	720.0
76.03	755.0
76.04	729.0
76.05	704.0
76.06	702.0
76.07	723.0
76.08	719.0
76.09	682.0
76.1	686.0
76.11	685.0
76.12	711.0
76.13	707.0
76.14	687.0
76.15	711.0
76.16	712.0
76.17	718.0
76.18	690.0
76.19	679.0
76.2	681.0
76.21	671.0
76.22	681.0
76.23	676.0
76.24	676.0
76.25	690.0
76.26	676.0
76.27	701.0
76.28	709.0
76.29	702.0
76.3	717.0
76.31	690.0
76.32	674.0
76.33	680.0
76.34	689.0
76.35	710.0
76.36	721.0
76.37	712.0
76.38	695.0
76.39	688.0
76.4	686.0
76.41	684.0
76.42	688.0
76.43	720.0
76.44	695.0
76.45	713.0
76.46	706.0
76.47	722.0
76.48	727.0
76.49	710.0
76.5	690.0
76.51	664.0
76.52	634.0
76.53	685.0
76.54	681.0
76.55	682.0
76.56	677.0
76.57	648.0
76.58	656.0
76.59	674.0
76.6	689.0
76.61	685.0
76.62	661.0
76.63	671.0
76.64	678.0
76.65	673.0
76.66	636.0
76.67	678.0
76.68	667.0
76.69	657.0
76.7	653.0
76.71	654.0
76.72	652.0
76.73	646.0
76.74	657.0
76.75	696.0
76.76	687.0
76.77	655.0
76.78	693.0
76.79	689.0
76.8	674.0
76.81	690.0
76.82	651.0
76.83	651.0
76.84	676.0
76.85	693.0
76.86	670.0
76.87	632.0
76.88	658.0
76.89	641.0
76.9	657.0
76.91	690.0
76.92	667.0
76.93	683.0
76.94	660.0
76.95	658.0
76.96	658.0
76.97	666.0
76.98	661.0
76.99	655.0
77.0	662.0
77.01	669.0
77.02	647.0
77.03	639.0
77.04	676.0
77.05	667.0
77.06	649.0
77.07	660.0
77.08	659.0
77.09	668.0
77.1	670.0
77.11	665.0
77.12	654.0
77.13	663.0
77.14	697.0
77.15	657.0
77.16	658.0
77.17	682.0
77.18	661.0
77.19	657.0
77.2	651.0
77.21	644.0
77.22	658.0
77.23	656.0
77.24	646.0
77.25	640.0
77.26	641.0
77.27	663.0
77.28	647.0
77.29	648.0
77.3	660.0
77.31	658.0
77.32	640.0
77.33	645.0
77.34	640.0
77.35	656.0
77.36	655.0
77.37	653.0
77.38	640.0
77.39	649.0
77.4	676.0
77.41	670.0
77.42	659.0
77.43	664.0
77.44	655.0
77.45	650.0
77.46	664.0
77.47	669.0
77.48	651.0
77.49	662.0
77.5	649.0
77.51	633.0
77.52	637.0
77.53	650.0
77.54	659.0
77.55	628.0
77.56	630.0
77.57	658.0
77.58	650.0
77.59	650.0
77.6	664.0
77.61	674.0
77.62	649.0
77.63	619.0
77.64	656.0
77.65	696.0
77.66	691.0
77.67	669.0
77.68	687.0
77.69	652.0
77.7	629.0
77.71	644.0
77.72	645.0
77.73	651.0
77.74	646.0
77.75	662.0
77.76	663.0
77.77	670.0
77.78	665.0
77.79	650.0
77.8	651.0
77.81	647.0
77.82	665.0
77.83	682.0
77.84	665.0
77.85	679.0
77.86	673.0
77.87	651.0
77.88	665.0
77.89	653.0
77.9	688.0
77.91	700.0
77.92	640.0
77.93	681.0
77.94	670.0
77.95	668.0
77.96	663.0
77.97	673.0
77.98	689.0
77.99	679.0
78.0	658.0
78.01	628.0
78.02	627.0
78.03	630.0
78.04	628.0
78.05	650.0
78.06	659.0
78.07	638.0
78.08	632.0
78.09	636.0
78.1	646.0
78.11	644.0
78.12	640.0
78.13	643.0
78.14	640.0
78.15	649.0
78.16	663.0
78.17	656.0
78.18	654.0
78.19	664.0
78.2	684.0
78.21	678.0
78.22	640.0
78.23	635.0
78.24	627.0
78.25	625.0
78.26	674.0
78.27	661.0
78.28	673.0
78.29	678.0
78.3	666.0
78.31	647.0
78.32	659.0
78.33	624.0
78.34	627.0
78.35	652.0
78.36	649.0
78.37	670.0
78.38	673.0
78.39	667.0
78.4	648.0
78.41	630.0
78.42	627.0
78.43	631.0
78.44	619.0
78.45	634.0
78.46	670.0
78.47	658.0
78.48	633.0
78.49	639.0
78.5	656.0
78.51	662.0
78.52	653.0
78.53	650.0
78.54	648.0
78.55	644.0
78.56	639.0
78.57	643.0
78.58	664.0
78.59	668.0
78.6	662.0
78.61	650.0
78.62	681.0
78.63	658.0
78.64	658.0
78.65	690.0
78.66	726.0
78.67	717.0
78.68	690.0
78.69	670.0
78.7	679.0
78.71	657.0
78.72	667.0
78.73	663.0
78.74	644.0
78.75	644.0
78.76	686.0
78.77	715.0
78.78	738.0
78.79	689.0
78.8	689.0
78.81	733.0
78.82	693.0
78.83	667.0
78.84	666.0
78.85	674.0
78.86	669.0
78.87	687.0
78.88	694.0
78.89	692.0
78.9	754.0
78.91	723.0
78.92	687.0
78.93	708.0
78.94	725.0
78.95	724.0
78.96	720.0
78.97	721.0
78.98	677.0
78.99	675.0
79.0	720.0
79.01	687.0
79.02	714.0
79.03	682.0
79.04	699.0
79.05	701.0
79.06	734.0
79.07	698.0
79.08	705.0
79.09	712.0
79.1	713.0
79.11	741.0
79.12	754.0
79.13	724.0
79.14	708.0
79.15	727.0
79.16	738.0
79.17	742.0
79.18	770.0
79.19	823.0
79.2	815.0
79.21	847.0
79.22	840.0
79.23	859.0
79.24	895.0
79.25	933.0
79.26	975.0
79.27	1026.0
79.28	1065.0
79.29	1073.0
79.3	1116.0
79.31	1155.0
79.32	1179.0
79.33	1161.0
79.34	1143.0
79.35	1149.0
79.36	1115.0
79.37	1102.0
79.38	1122.0
79.39	1081.0
79.4	1046.0
79.41	1011.0
79.42	1024.0
79.43	1038.0
79.44	1012.0
79.45	969.0
79.46	956.0
79.47	1027.0
79.48	1031.0
79.49	1016.0
79.5	997.0
79.51	989.0
79.52	1005.0
79.53	1034.0
79.54	1026.0
79.55	985.0
79.56	951.0
79.57	977.0
79.58	979.0
79.59	954.0
79.6	957.0
79.61	919.0
79.62	891.0
79.63	911.0
79.64	971.0
79.65	931.0
79.66	907.0
79.67	876.0
79.68	859.0
79.69	828.0
79.7	816.0
79.71	816.0
79.72	847.0
79.73	817.0
79.74	788.0
79.75	792.0
79.76	753.0
79.77	754.0
79.78	767.0
79.79	772.0
79.8	796.0
79.81	761.0
79.82	788.0
79.83	794.0
79.84	772.0
79.85	725.0
79.86	733.0
79.87	763.0
79.88	727.0
79.89	728.0
79.9	727.0
79.91	685.0
79.92	713.0
79.93	722.0
79.94	716.0
79.95	734.0
79.96	698.0
79.97	688.0
79.98	710.0
79.99	703.0
80.0	688.0
80.01	703.0
80.02	707.0
80.03	704.0
80.04	722.0
80.05	692.0
80.06	683.0
80.07	668.0
80.08	666.0
80.09	713.0
80.1	685.0
80.11	691.0
80.12	692.0
80.13	697.0
80.14	680.0
80.15	682.0
80.16	693.0
80.17	680.0
80.18	684.0
80.19	693.0
80.2	708.0
80.21	697.0
80.22	679.0
80.23	672.0
80.24	670.0
80.25	696.0
80.26	687.0
80.27	660.0
80.28	676.0
80.29	694.0
80.3	675.0
80.31	680.0
80.32	703.0
80.33	700.0
80.34	632.0
80.35	661.0
80.36	694.0
80.37	716.0
80.38	687.0
80.39	651.0
80.4	641.0
80.41	644.0
80.42	662.0
80.43	677.0
80.44	708.0
80.45	661.0
80.46	640.0
80.47	688.0
80.48	684.0
80.49	664.0
80.5	646.0
80.51	639.0
80.52	645.0
80.53	652.0
80.54	666.0
80.55	636.0
80.56	648.0
80.57	669.0
80.58	646.0
80.59	656.0
80.6	669.0
80.61	661.0
80.62	672.0
80.63	653.0
80.64	659.0
80.65	684.0
80.66	688.0
80.67	658.0
80.68	666.0
80.69	651.0
80.7	666.0
80.71	660.0
80.72	658.0
80.73	661.0
80.74	660.0
80.75	678.0
80.76	669.0
80.77	662.0
80.78	665.0
80.79	653.0
80.8	653.0
80.81	655.0
80.82	647.0
80.83	684.0
80.84	701.0
80.85	671.0
80.86	665.0
80.87	684.0
80.88	670.0
80.89	654.0
80.9	648.0
80.91	621.0
80.92	654.0
80.93	698.0
80.94	668.0
80.95	696.0
80.96	706.0
80.97	672.0
80.98	664.0
80.99	660.0
81.0	659.0
81.01	664.0
81.02	670.0
81.03	682.0
81.04	687.0
81.05	662.0
81.06	649.0
81.07	652.0
81.08	666.0
81.09	683.0
81.1	681.0
81.11	661.0
81.12	660.0
81.13	672.0
81.14	658.0
81.15	658.0
81.16	646.0
81.17	633.0
81.18	656.0
81.19	655.0
81.2	630.0
81.21	634.0
81.22	645.0
81.23	671.0
81.24	677.0
81.25	671.0
81.26	653.0
81.27	655.0
81.28	661.0
81.29	662.0
81.3	673.0
81.31	630.0
81.32	669.0
81.33	690.0
81.34	672.0
81.35	664.0
81.36	669.0
81.37	682.0
81.38	654.0
81.39	649.0
81.4	622.0
81.41	643.0
81.42	665.0
81.43	658.0
81.44	638.0
81.45	671.0
81.46	665.0
81.47	658.0
81.48	656.0
81.49	636.0
81.5	646.0
81.51	644.0
81.52	652.0
81.53	672.0
81.54	663.0
81.55	645.0
81.56	661.0
81.57	665.0
81.58	667.0
81.59	683.0
81.6	664.0
81.61	645.0
81.62	639.0
81.63	660.0
81.64	674.0
81.65	656.0
81.66	677.0
81.67	693.0
81.68	670.0
81.69	660.0
81.7	659.0
81.71	671.0
81.72	701.0
81.73	692.0
81.74	669.0
81.75	662.0
81.76	666.0
81.77	698.0
81.78	678.0
81.79	685.0
81.8	681.0
81.81	700.0
81.82	714.0
81.83	707.0
81.84	695.0
81.85	694.0
81.86	682.0
81.87	682.0
81.88	700.0
81.89	692.0
81.9	695.0
81.91	696.0
81.92	673.0
81.93	684.0
81.94	681.0
81.95	694.0
81.96	673.0
81.97	667.0
81.98	683.0
81.99	664.0
82.0	663.0
82.01	692.0
82.02	666.0
82.03	681.0
82.04	713.0
82.05	720.0
82.06	687.0
82.07	674.0
82.08	686.0
82.09	711.0
82.1	708.0
82.11	731.0
82.12	714.0
82.13	747.0
82.14	753.0
82.15	743.0
82.16	759.0
82.17	772.0
82.18	767.0
82.19	816.0
82.2	836.0
82.21	884.0
82.22	888.0
82.23	897.0
82.24	915.0
82.25	910.0
82.26	949.0
82.27	926.0
82.28	932.0
82.29	909.0
82.3	888.0
82.31	922.0
82.32	896.0
82.33	866.0
82.34	896.0
82.35	901.0
82.36	844.0
82.37	870.0
82.38	870.0
82.39	842.0
82.4	860.0
82.41	866.0
82.42	829.0
82.43	820.0
82.44	803.0
82.45	837.0
82.46	856.0
82.47	884.0
82.48	861.0
82.49	853.0
82.5	850.0
82.51	876.0
82.52	857.0
82.53	840.0
82.54	832.0
82.55	850.0
82.56	817.0
82.57	828.0
82.58	837.0
82.59	821.0
82.6	817.0
82.61	784.0
82.62	814.0
82.63	794.0
82.64	759.0
82.65	758.0
82.66	764.0
82.67	747.0
82.68	739.0
82.69	743.0
82.7	734.0
82.71	710.0
82.72	711.0
82.73	733.0
82.74	721.0
82.75	723.0
82.76	703.0
82.77	694.0
82.78	720.0
82.79	726.0
82.8	718.0
82.81	711.0
82.82	690.0
82.83	693.0
82.84	693.0
82.85	725.0
82.86	701.0
82.87	699.0
82.88	678.0
82.89	697.0
82.9	667.0
82.91	657.0
82.92	671.0
82.93	723.0
82.94	716.0
82.95	671.0
82.96	653.0
82.97	691.0
82.98	689.0
82.99	672.0
83.0	675.0
83.01	680.0
83.02	726.0
83.03	677.0
83.04	669.0
83.05	666.0
83.06	671.0
83.07	663.0
83.08	686.0
83.09	681.0
83.1	675.0
83.11	684.0
83.12	680.0
83.13	668.0
83.14	669.0
83.15	645.0
83.16	673.0
83.17	669.0
83.18	670.0
83.19	696.0
83.2	681.0
83.21	697.0
83.22	683.0
83.23	672.0
83.24	678.0
83.25	674.0
83.26	676.0
83.27	671.0
83.28	670.0
83.29	650.0
83.3	651.0
83.31	668.0
83.32	669.0
83.33	661.0
83.34	636.0
83.35	632.0
83.36	652.0
83.37	650.0
83.38	673.0
83.39	671.0
83.4	656.0
83.41	667.0
83.42	669.0
83.43	677.0
83.44	678.0
83.45	664.0
83.46	664.0
83.47	685.0
83.48	695.0
83.49	674.0
83.5	667.0
83.51	649.0
83.52	642.0
83.53	653.0
83.54	668.0
83.55	687.0
83.56	669.0
83.57	653.0
83.58	659.0
83.59	641.0
83.6	640.0
83.61	657.0
83.62	657.0
83.63	660.0
83.64	661.0
83.65	674.0
83.66	648.0
83.67	645.0
83.68	675.0
83.69	692.0
83.7	644.0
83.71	622.0
83.72	649.0
83.73	670.0
83.74	640.0
83.75	654.0
83.76	664.0
83.77	659.0
83.78	669.0
83.79	680.0
83.8	660.0
83.81	641.0
83.82	651.0
83.83	676.0
83.84	674.0
83.85	677.0
83.86	675.0
83.87	671.0
83.88	641.0
83.89	640.0
83.9	650.0
83.91	651.0
83.92	643.0
83.93	643.0
83.94	665.0
83.95	685.0
83.96	681.0
83.97	673.0
83.98	660.0
83.99	647.0
84.0	682.0
84.01	682.0
84.02	671.0
84.03	654.0
84.04	654.0
84.05	655.0
84.06	650.0
84.07	661.0
84.08	668.0
84.09	649.0
84.1	666.0
84.11	666.0
84.12	683.0
84.13	675.0
84.14	646.0
84.15	634.0
84.16	654.0
84.17	647.0
84.18	670.0
84.19	670.0
84.2	663.0
84.21	670.0
84.22	660.0
84.23	653.0
84.24	663.0
84.25	663.0
84.26	654.0
84.27	683.0
84.28	673.0
84.29	676.0
84.3	651.0
84.31	629.0
84.32	637.0
84.33	661.0
84.34	661.0
84.35	642.0
84.36	629.0
84.37	665.0
84.38	661.0
84.39	637.0
84.4	658.0
84.41	668.0
84.42	658.0
84.43	659.0
84.44	653.0
84.45	645.0
84.46	658.0
84.47	677.0
84.48	663.0
84.49	675.0
84.5	677.0
84.51	648.0
84.52	663.0
84.53	647.0
84.54	677.0
84.55	681.0
84.56	689.0
84.57	659.0
84.58	668.0
84.59	688.0
84.6	683.0
84.61	663.0
84.62	638.0
84.63	657.0
84.64	674.0
84.65	679.0
84.66	671.0
84.67	690.0
84.68	657.0
84.69	642.0
84.7	611.0
84.71	632.0
84.72	652.0
84.73	615.0
84.74	610.0
84.75	639.0
84.76	647.0
84.77	635.0
84.78	628.0
84.79	639.0
84.8	674.0
84.81	657.0
84.82	626.0
84.83	632.0
84.84	627.0
84.85	616.0
84.86	632.0
84.87	645.0
84.88	653.0
84.89	675.0
84.9	691.0
84.91	658.0
84.92	661.0
84.93	658.0
84.94	653.0
84.95	672.0
84.96	700.0
84.97	671.0
84.98	655.0
84.99	645.0
85.0	633.0
85.01	647.0
85.02	661.0
85.03	657.0
85.04	658.0
85.05	659.0
85.06	650.0
85.07	646.0
85.08	653.0
85.09	650.0
85.1	628.0
85.11	645.0
85.12	645.0
85.13	664.0
85.14	671.0
85.15	649.0
85.16	652.0
85.17	655.0
85.18	651.0
85.19	636.0
85.2	640.0
85.21	620.0
85.22	611.0
85.23	635.0
85.24	667.0
85.25	662.0
85.26	632.0
85.27	631.0
85.28	636.0
85.29	653.0
85.3	681.0
85.31	696.0
85.32	658.0
85.33	642.0
85.34	664.0
85.35	676.0
85.36	664.0
85.37	627.0
85.38	643.0
85.39	648.0
85.4	617.0
85.41	622.0
85.42	647.0
85.43	662.0
85.44	651.0
85.45	645.0
85.46	664.0
85.47	676.0
85.48	689.0
85.49	682.0
85.5	650.0
85.51	637.0
85.52	637.0
85.53	643.0
85.54	634.0
85.55	663.0
85.56	642.0
85.57	629.0
85.58	648.0
85.59	656.0
85.6	663.0
85.61	664.0
85.62	659.0
85.63	664.0
85.64	647.0
85.65	658.0
85.66	656.0
85.67	655.0
85.68	657.0
85.69	649.0
85.7	645.0
85.71	650.0
85.72	656.0
85.73	656.0
85.74	654.0
85.75	661.0
85.76	665.0
85.77	635.0
85.78	653.0
85.79	647.0
85.8	635.0
85.81	655.0
85.82	662.0
85.83	646.0
85.84	642.0
85.85	619.0
85.86	624.0
85.87	667.0
85.88	683.0
85.89	640.0
85.9	622.0
85.91	636.0
85.92	638.0
85.93	628.0
85.94	628.0
85.95	628.0
85.96	631.0
85.97	631.0
85.98	631.0
85.99	629.0
86.0	627.0
86.01	644.0
86.02	671.0
86.03	659.0
86.04	656.0
86.05	678.0
86.06	690.0
86.07	663.0
86.08	643.0
86.09	661.0
86.1	665.0
86.11	673.0
86.12	656.0
86.13	638.0
86.14	642.0
86.15	650.0
86.16	678.0
86.17	652.0
86.18	644.0
86.19	633.0
86.2	644.0
86.21	661.0
86.22	641.0
86.23	642.0
86.24	639.0
86.25	629.0
86.26	659.0
86.27	654.0
86.28	648.0
86.29	654.0
86.3	670.0
86.31	656.0
86.32	637.0
86.33	635.0
86.34	642.0
86.35	639.0
86.36	636.0
86.37	634.0
86.38	660.0
86.39	674.0
86.4	681.0
86.41	662.0
86.42	661.0
86.43	677.0
86.44	687.0
86.45	677.0
86.46	686.0
86.47	668.0
86.48	684.0
86.49	699.0
86.5	700.0
86.51	663.0
86.52	611.0
86.53	608.0
86.54	667.0
86.55	683.0
86.56	635.0
86.57	628.0
86.58	632.0
86.59	646.0
86.6	670.0
86.61	679.0
86.62	646.0
86.63	671.0
86.64	663.0
86.65	660.0
86.66	696.0
86.67	685.0
86.68	640.0
86.69	636.0
86.7	654.0
86.71	677.0
86.72	686.0
86.73	678.0
86.74	657.0
86.75	658.0
86.76	675.0
86.77	663.0
86.78	649.0
86.79	639.0
86.8	641.0
86.81	672.0
86.82	641.0
86.83	636.0
86.84	651.0
86.85	646.0
86.86	656.0
86.87	664.0
86.88	669.0
86.89	695.0
86.9	686.0
86.91	677.0
86.92	664.0
86.93	653.0
86.94	676.0
86.95	688.0
86.96	660.0
86.97	644.0
86.98	657.0
86.99	682.0
87.0	676.0
87.01	665.0
87.02	650.0
87.03	655.0
87.04	673.0
87.05	720.0
87.06	708.0
87.07	686.0
87.08	685.0
87.09	673.0
87.1	702.0
87.11	703.0
87.12	706.0
87.13	710.0
87.14	706.0
87.15	711.0
87.16	697.0
87.17	695.0
87.18	717.0
87.19	721.0
87.2	720.0
87.21	698.0
87.22	688.0
87.23	698.0
87.24	690.0
87.25	687.0
87.26	699.0
87.27	698.0
87.28	689.0
87.29	695.0
87.3	701.0
87.31	679.0
87.32	686.0
87.33	701.0
87.34	692.0
87.35	684.0
87.36	679.0
87.37	687.0
87.38	715.0
87.39	714.0
87.4	695.0
87.41	689.0
87.42	694.0
87.43	688.0
87.44	674.0
87.45	685.0
87.46	699.0
87.47	693.0
87.48	699.0
87.49	704.0
87.5	693.0
87.51	655.0
87.52	647.0
87.53	666.0
87.54	644.0
87.55	651.0
87.56	673.0
87.57	683.0
87.58	674.0
87.59	654.0
87.6	652.0
87.61	650.0
87.62	652.0
87.63	655.0
87.64	657.0
87.65	655.0
87.66	644.0
87.67	665.0
87.68	682.0
87.69	659.0
87.7	633.0
87.71	640.0
87.72	662.0
87.73	696.0
87.74	673.0
87.75	643.0
87.76	636.0
87.77	638.0
87.78	633.0
87.79	612.0
87.8	617.0
87.81	642.0
87.82	656.0
87.83	629.0
87.84	631.0
87.85	636.0
87.86	633.0
87.87	660.0
87.88	673.0
87.89	658.0
87.9	633.0
87.91	650.0
87.92	645.0
87.93	632.0
87.94	623.0
87.95	637.0
87.96	635.0
87.97	630.0
87.98	633.0
87.99	647.0
88.0	652.0
88.01	653.0
88.02	666.0
88.03	673.0
88.04	670.0
88.05	656.0
88.06	648.0
88.07	649.0
88.08	638.0
88.09	639.0
88.1	626.0
88.11	636.0
88.12	678.0
88.13	676.0
88.14	658.0
88.15	644.0
88.16	624.0
88.17	626.0
88.18	636.0
88.19	646.0
88.2	668.0
88.21	672.0
88.22	661.0
88.23	650.0
88.24	652.0
88.25	662.0
88.26	635.0
88.27	655.0
88.28	650.0
88.29	662.0
88.3	660.0
88.31	663.0
88.32	649.0
88.33	667.0
88.34	642.0
88.35	624.0
88.36	654.0
88.37	655.0
88.38	634.0
88.39	636.0
88.4	657.0
88.41	676.0
88.42	678.0
88.43	661.0
88.44	648.0
88.45	655.0
88.46	665.0
88.47	660.0
88.48	657.0
88.49	644.0
88.5	638.0
88.51	635.0
88.52	669.0
88.53	674.0
88.54	660.0
88.55	638.0
88.56	655.0
88.57	659.0
88.58	657.0
88.59	648.0
88.6	663.0
88.61	686.0
88.62	662.0
88.63	621.0
88.64	622.0
88.65	653.0
88.66	663.0
88.67	650.0
88.68	634.0
88.69	637.0
88.7	673.0
88.71	696.0
88.72	671.0
88.73	656.0
88.74	656.0
88.75	658.0
88.76	656.0
88.77	658.0
88.78	658.0
88.79	667.0
88.8	671.0
88.81	674.0
88.82	673.0
88.83	683.0
88.84	672.0
88.85	671.0
88.86	681.0
88.87	679.0
88.88	677.0
88.89	658.0
88.9	645.0
88.91	673.0
88.92	690.0
88.93	678.0
88.94	680.0
88.95	698.0
88.96	694.0
88.97	714.0
88.98	682.0
88.99	666.0
89.0	663.0
89.01	649.0
89.02	640.0
89.03	646.0
89.04	674.0
89.05	676.0
89.06	686.0
89.07	689.0
89.08	676.0
89.09	668.0
89.1	662.0
89.11	688.0
89.12	711.0
89.13	687.0
89.14	659.0
89.15	666.0
89.16	682.0
89.17	672.0
89.18	666.0
89.19	661.0
89.2	665.0
89.21	706.0
89.22	729.0
89.23	723.0
89.24	705.0
89.25	698.0
89.26	707.0
89.27	718.0
89.28	712.0
89.29	682.0
89.3	657.0
89.31	683.0
89.32	716.0
89.33	720.0
89.34	719.0
89.35	716.0
89.36	699.0
89.37	697.0
89.38	714.0
89.39	716.0
89.4	706.0
89.41	697.0
89.42	712.0
89.43	709.0
89.44	706.0
89.45	727.0
89.46	707.0
89.47	696.0
89.48	716.0
89.49	732.0
89.5	728.0
89.51	724.0
89.52	715.0
89.53	727.0
89.54	721.0
89.55	723.0
89.56	728.0
89.57	724.0
89.58	718.0
89.59	724.0
89.6	735.0
89.61	738.0
89.62	737.0
89.63	730.0
89.64	723.0
89.65	717.0
89.66	711.0
89.67	714.0
89.68	730.0
89.69	747.0
89.7	750.0
89.71	734.0
89.72	726.0
89.73	736.0
89.74	732.0
89.75	726.0
89.76	745.0
89.77	747.0
89.78	748.0
89.79	746.0
89.8	734.0
89.81	744.0
89.82	749.0
89.83	746.0
89.84	780.0
89.85	785.0
89.86	784.0
89.87	801.0
89.88	809.0
89.89	818.0
89.9	823.0
89.91	839.0
89.92	854.0
89.93	840.0
89.94	854.0
89.95	882.0
89.96	909.0
89.97	956.0
89.98	1019.0
89.99	1054.0
90.0	1088.0
90.01	1141.0
90.02	1148.0
90.03	1175.0
90.04	1233.0
90.05	1239.0
90.06	1237.0
90.07	1244.0
90.08	1257.0
90.09	1223.0
90.1	1171.0
90.11	1176.0
90.12	1201.0
90.13	1198.0
90.14	1179.0
90.15	1167.0
90.16	1153.0
90.17	1126.0
90.18	1094.0
90.19	1077.0
90.2	1105.0
90.21	1096.0
90.22	1070.0
90.23	1045.0
90.24	1022.0
90.25	1035.0
90.26	1069.0
90.27	1105.0
90.28	1111.0
90.29	1080.0
90.3	1072.0
90.31	1074.0
90.32	1056.0
90.33	1070.0
90.34	1104.0
90.35	1096.0
90.36	1074.0
90.37	1085.0
90.38	1072.0
90.39	1029.0
90.4	978.0
90.41	956.0
90.42	985.0
90.43	981.0
90.44	963.0
90.45	942.0
90.46	924.0
90.47	915.0
90.48	916.0
90.49	899.0
90.5	880.0
90.51	858.0
90.52	839.0
90.53	852.0
90.54	840.0
90.55	802.0
90.56	794.0
90.57	794.0
90.58	787.0
90.59	776.0
90.6	771.0
90.61	774.0
90.62	764.0
90.63	755.0
90.64	759.0
90.65	773.0
90.66	768.0
90.67	732.0
90.68	740.0
90.69	764.0
90.7	730.0
90.71	701.0
90.72	721.0
90.73	737.0
90.74	717.0
90.75	719.0
90.76	747.0
90.77	750.0
90.78	728.0
90.79	726.0
90.8	725.0
90.81	704.0
90.82	708.0
90.83	716.0
90.84	713.0
90.85	714.0
90.86	714.0
90.87	713.0
90.88	704.0
90.89	711.0
90.9	708.0
90.91	687.0
90.92	677.0
90.93	678.0
90.94	686.0
90.95	699.0
90.96	708.0
90.97	700.0
90.98	701.0
90.99	709.0
91.0	688.0
91.01	667.0
91.02	665.0
91.03	670.0
91.04	679.0
91.05	674.0
91.06	654.0
91.07	647.0
91.08	648.0
91.09	666.0
91.1	690.0
91.11	686.0
91.12	694.0
91.13	706.0
91.14	701.0
91.15	680.0
91.16	676.0
91.17	692.0
91.18	694.0
91.19	675.0
91.2	656.0
91.21	664.0
91.22	663.0
91.23	661.0
91.24	670.0
91.25	658.0
91.26	671.0
91.27	688.0
91.28	673.0
91.29	665.0
91.3	666.0
91.31	650.0
91.32	661.0
91.33	699.0
91.34	684.0
91.35	668.0
91.36	674.0
91.37	671.0
91.38	675.0
91.39	695.0
91.4	707.0
91.41	691.0
91.42	674.0
91.43	654.0
91.44	633.0
91.45	654.0
91.46	679.0
91.47	684.0
91.48	677.0
91.49	662.0
91.5	652.0
91.51	653.0
91.52	675.0
91.53	677.0
91.54	658.0
91.55	654.0
91.56	666.0
91.57	678.0
91.58	684.0
91.59	685.0
91.6	687.0
91.61	679.0
91.62	659.0
91.63	653.0
91.64	662.0
91.65	662.0
91.66	677.0
91.67	701.0
91.68	703.0
91.69	704.0
91.7	689.0
91.71	682.0
91.72	693.0
91.73	686.0
91.74	679.0
91.75	671.0
91.76	668.0
91.77	677.0
91.78	665.0
91.79	651.0
91.8	644.0
91.81	653.0
91.82	663.0
91.83	658.0
91.84	647.0
91.85	650.0
91.86	657.0
91.87	668.0
91.88	685.0
91.89	690.0
91.9	688.0
91.91	678.0
91.92	657.0
91.93	645.0
91.94	662.0
91.95	661.0
91.96	660.0
91.97	668.0
91.98	640.0
91.99	640.0
92.0	670.0
92.01	668.0
92.02	646.0
92.03	643.0
92.04	670.0
92.05	671.0
92.06	648.0
92.07	624.0
92.08	637.0
92.09	673.0
92.1	668.0
92.11	654.0
92.12	660.0
92.13	656.0
92.14	634.0
92.15	628.0
92.16	655.0
92.17	675.0
92.18	683.0
92.19	701.0
92.2	698.0
92.21	673.0
92.22	656.0
92.23	655.0
92.24	659.0
92.25	671.0
92.26	664.0
92.27	634.0
92.28	641.0
92.29	674.0
92.3	655.0
92.31	642.0
92.32	654.0
92.33	655.0
92.34	646.0
92.35	635.0
92.36	622.0
92.37	621.0
92.38	634.0
92.39	668.0
92.4	686.0
92.41	692.0
92.42	687.0
92.43	672.0
92.44	677.0
92.45	687.0
92.46	658.0
92.47	623.0
92.48	633.0
92.49	670.0
92.5	675.0
92.51	639.0
92.52	620.0
92.53	639.0
92.54	648.0
92.55	655.0
92.56	647.0
92.57	639.0
92.58	656.0
92.59	652.0
92.6	658.0
92.61	676.0
92.62	656.0
92.63	648.0
92.64	651.0
92.65	659.0
92.66	650.0
92.67	641.0
92.68	647.0
92.69	654.0
92.7	664.0
92.71	668.0
92.72	681.0
92.73	673.0
92.74	643.0
92.75	637.0
92.76	662.0
92.77	684.0
92.78	667.0
92.79	668.0
92.8	667.0
92.81	653.0
92.82	632.0
92.83	638.0
92.84	659.0
92.85	645.0
92.86	628.0
92.87	638.0
92.88	644.0
92.89	641.0
92.9	637.0
92.91	636.0
92.92	643.0
92.93	640.0
92.94	643.0
92.95	654.0
92.96	644.0
92.97	620.0
92.98	639.0
92.99	660.0
93.0	662.0
93.01	648.0
93.02	648.0
93.03	645.0
93.04	637.0
93.05	632.0
93.06	656.0
93.07	658.0
93.08	665.0
93.09	682.0
93.1	673.0
93.11	674.0
93.12	669.0
93.13	652.0
93.14	653.0
93.15	659.0
93.16	658.0
93.17	659.0
93.18	651.0
93.19	664.0
93.2	682.0
93.21	661.0
93.22	643.0
93.23	664.0
93.24	669.0
93.25	657.0
93.26	665.0
93.27	659.0
93.28	632.0
93.29	631.0
93.3	636.0
93.31	635.0
93.32	656.0
93.33	661.0
93.34	658.0
93.35	679.0
93.36	700.0
93.37	674.0
93.38	639.0
93.39	627.0
93.4	644.0
93.41	647.0
93.42	652.0
93.43	657.0
93.44	653.0
93.45	678.0
93.46	690.0
93.47	680.0
93.48	678.0
93.49	656.0
93.5	670.0
93.51	671.0
93.52	654.0
93.53	673.0
93.54	680.0
93.55	671.0
93.56	661.0
93.57	650.0
93.58	649.0
93.59	660.0
93.6	658.0
93.61	662.0
93.62	680.0
93.63	676.0
93.64	662.0
93.65	656.0
93.66	637.0
93.67	626.0
93.68	624.0
93.69	641.0
93.7	654.0
93.71	629.0
93.72	616.0
93.73	643.0
93.74	675.0
93.75	678.0
93.76	665.0
93.77	653.0
93.78	638.0
93.79	643.0
93.8	662.0
93.81	661.0
93.82	671.0
93.83	687.0
93.84	660.0
93.85	642.0
93.86	667.0
93.87	671.0
93.88	674.0
93.89	651.0
93.9	653.0
93.91	666.0
93.92	683.0
93.93	693.0
93.94	689.0
93.95	682.0
93.96	680.0
93.97	674.0
93.98	674.0
93.99	672.0
94.0	674.0
94.01	691.0
94.02	681.0
94.03	687.0
94.04	691.0
94.05	707.0
94.06	708.0
94.07	674.0
94.08	653.0
94.09	676.0
94.1	695.0
94.11	715.0
94.12	693.0
94.13	672.0
94.14	679.0
94.15	680.0
94.16	677.0
94.17	659.0
94.18	644.0
94.19	669.0
94.2	699.0
94.21	684.0
94.22	671.0
94.23	680.0
94.24	687.0
94.25	701.0
94.26	681.0
94.27	707.0
94.28	716.0
94.29	689.0
94.3	676.0
94.31	674.0
94.32	680.0
94.33	686.0
94.34	683.0
94.35	649.0
94.36	649.0
94.37	671.0
94.38	677.0
94.39	670.0
94.4	656.0
94.41	660.0
94.42	661.0
94.43	667.0
94.44	672.0
94.45	658.0
94.46	638.0
94.47	651.0
94.48	675.0
94.49	679.0
94.5	697.0
94.51	710.0
94.52	685.0
94.53	688.0
94.54	698.0
94.55	693.0
94.56	667.0
94.57	631.0
94.58	633.0
94.59	677.0
94.6	717.0
94.61	736.0
94.62	724.0
94.63	696.0
94.64	699.0
94.65	700.0
94.66	704.0
94.67	687.0
94.68	697.0
94.69	721.0
94.7	712.0
94.71	730.0
94.72	721.0
94.73	727.0
94.74	737.0
94.75	712.0
94.76	702.0
94.77	720.0
94.78	750.0
94.79	759.0
94.8	765.0
94.81	755.0
94.82	779.0
94.83	794.0
94.84	804.0
94.85	810.0
94.86	825.0
94.87	830.0
94.88	848.0
94.89	860.0
94.9	893.0
94.91	910.0
94.92	896.0
94.93	883.0
94.94	865.0
94.95	877.0
94.96	904.0
94.97	888.0
94.98	859.0
94.99	849.0
95.0	876.0
95.01	887.0
95.02	882.0
95.03	898.0
95.04	907.0
95.05	903.0
95.06	892.0
95.07	856.0
95.08	859.0
95.09	854.0
95.1	819.0
95.11	808.0
95.12	801.0
95.13	818.0
95.14	831.0
95.15	819.0
95.16	820.0
95.17	816.0
95.18	801.0
95.19	805.0
95.2	827.0
95.21	817.0
95.22	817.0
95.23	856.0
95.24	852.0
95.25	801.0
95.26	789.0
95.27	795.0
95.28	811.0
95.29	805.0
95.3	808.0
95.31	804.0
95.32	797.0
95.33	787.0
95.34	788.0
95.35	811.0
95.36	797.0
95.37	772.0
95.38	756.0
95.39	743.0
95.4	725.0
95.41	724.0
95.42	730.0
95.43	718.0
95.44	726.0
95.45	753.0
95.46	754.0
95.47	712.0
95.48	693.0
95.49	711.0
95.5	731.0
95.51	745.0
95.52	725.0
95.53	717.0
95.54	715.0
95.55	702.0
95.56	705.0
95.57	713.0
95.58	716.0
95.59	691.0
95.6	691.0
95.61	678.0
95.62	651.0
95.63	657.0
95.64	683.0
95.65	679.0
95.66	666.0
95.67	679.0
95.68	687.0
95.69	691.0
95.7	682.0
95.71	671.0
95.72	687.0
95.73	695.0
95.74	690.0
95.75	681.0
95.76	706.0
95.77	705.0
95.78	695.0
95.79	691.0
95.8	704.0
95.81	713.0
95.82	706.0
95.83	670.0
95.84	676.0
95.85	712.0
95.86	718.0
95.87	701.0
95.88	685.0
95.89	698.0
95.9	703.0
95.91	677.0
95.92	675.0
95.93	686.0
95.94	692.0
95.95	676.0
95.96	706.0
95.97	671.0
95.98	687.0
95.99	692.0
96.0	671.0
96.01	658.0
96.02	678.0
96.03	701.0
96.04	690.0
96.05	680.0
96.06	679.0
96.07	676.0
96.08	662.0
96.09	660.0
96.1	662.0
96.11	663.0
96.12	676.0
96.13	670.0
96.14	652.0
96.15	673.0
96.16	650.0
96.17	660.0
96.18	696.0
96.19	661.0
96.2	649.0
96.21	680.0
96.22	683.0
96.23	647.0
96.24	644.0
96.25	668.0
96.26	680.0
96.27	668.0
96.28	635.0
96.29	637.0
96.3	653.0
96.31	654.0
96.32	650.0
96.33	678.0
96.34	687.0
96.35	667.0
96.36	664.0
96.37	645.0
96.38	625.0
96.39	641.0
96.4	641.0
96.41	663.0
96.42	643.0
96.43	654.0
96.44	661.0
96.45	660.0
96.46	648.0
96.47	655.0
96.48	675.0
96.49	670.0
96.5	656.0
96.51	661.0
96.52	655.0
96.53	633.0
96.54	642.0
96.55	647.0
96.56	630.0
96.57	633.0
96.58	653.0
96.59	626.0
96.6	643.0
96.61	660.0
96.62	657.0
96.63	668.0
96.64	681.0
96.65	674.0
96.66	672.0
96.67	686.0
96.68	663.0
96.69	625.0
96.7	638.0
96.71	646.0
96.72	646.0
96.73	656.0
96.74	655.0
96.75	662.0
96.76	636.0
96.77	642.0
96.78	661.0
96.79	627.0
96.8	624.0
96.81	645.0
96.82	658.0
96.83	643.0
96.84	633.0
96.85	655.0
96.86	671.0
96.87	684.0
96.88	690.0
96.89	657.0
96.9	626.0
96.91	630.0
96.92	673.0
96.93	695.0
96.94	658.0
96.95	664.0
96.96	688.0
96.97	675.0
96.98	648.0
96.99	630.0
97.0	650.0
97.01	658.0
97.02	662.0
97.03	667.0
97.04	655.0
97.05	649.0
97.06	665.0
97.07	648.0
97.08	626.0
97.09	659.0
97.1	644.0
97.11	624.0
97.12	640.0
97.13	667.0
97.14	684.0
97.15	654.0
97.16	653.0
97.17	661.0
97.18	654.0
97.19	661.0
97.2	679.0
97.21	684.0
97.22	650.0
97.23	635.0
97.24	654.0
97.25	643.0
97.26	602.0
97.27	614.0
97.28	641.0
97.29	661.0
97.3	680.0
97.31	646.0
97.32	637.0
97.33	649.0
97.34	665.0
97.35	664.0
97.36	639.0
97.37	623.0
97.38	646.0
97.39	651.0
97.4	615.0
97.41	623.0
97.42	644.0
97.43	669.0
97.44	655.0
97.45	657.0
97.46	632.0
97.47	646.0
97.48	631.0
97.49	636.0
97.5	620.0
97.51	657.0
97.52	658.0
97.53	654.0
97.54	671.0
97.55	669.0
97.56	635.0
97.57	642.0
97.58	638.0
97.59	642.0
97.6	667.0
97.61	671.0
97.62	649.0
97.63	647.0
97.64	638.0
97.65	651.0
97.66	657.0
97.67	667.0
97.68	667.0
97.69	648.0
97.7	627.0
97.71	627.0
97.72	660.0
97.73	676.0
97.74	671.0
97.75	668.0
97.76	658.0
97.77	661.0
97.78	669.0
97.79	668.0
97.8	652.0
97.81	655.0
97.82	642.0
97.83	629.0
97.84	650.0
97.85	663.0
97.86	620.0
97.87	652.0
97.88	677.0
97.89	673.0
97.9	661.0
97.91	671.0
97.92	662.0
97.93	669.0
97.94	661.0
97.95	621.0
97.96	647.0
97.97	655.0
97.98	656.0
97.99	655.0
98.0	666.0
98.01	644.0
98.02	630.0
98.03	629.0
98.04	644.0
98.05	616.0
98.06	638.0
98.07	668.0
98.08	653.0
98.09	632.0
98.1	679.0
98.11	644.0
98.12	664.0
98.13	667.0
98.14	643.0
98.15	624.0
98.16	643.0
98.17	634.0
98.18	656.0
98.19	652.0
98.2	650.0
98.21	647.0
98.22	647.0
98.23	662.0
98.24	648.0
98.25	636.0
98.26	663.0
98.27	632.0
98.28	662.0
98.29	633.0
98.3	646.0
98.31	670.0
98.32	670.0
98.33	663.0
98.34	672.0
98.35	628.0
98.36	631.0
98.37	625.0
98.38	633.0
98.39	652.0
98.4	660.0
98.41	646.0
98.42	650.0
98.43	637.0
98.44	624.0
98.45	633.0
98.46	645.0
98.47	628.0
98.48	634.0
98.49	642.0
98.5	635.0
98.51	634.0
98.52	638.0
98.53	657.0
98.54	659.0
98.55	647.0
98.56	653.0
98.57	635.0
98.58	626.0
98.59	648.0
98.6	662.0
98.61	631.0
98.62	620.0
98.63	650.0
98.64	655.0
98.65	650.0
98.66	641.0
98.67	642.0
98.68	644.0
98.69	645.0
98.7	636.0
98.71	630.0
98.72	640.0
98.73	637.0
98.74	634.0
98.75	658.0
98.76	648.0
98.77	629.0
98.78	638.0
98.79	624.0
98.8	619.0
98.81	606.0
98.82	639.0
98.83	648.0
98.84	641.0
98.85	631.0
98.86	625.0
98.87	652.0
98.88	659.0
98.89	644.0
98.9	661.0
98.91	639.0
98.92	642.0
98.93	649.0
98.94	656.0
98.95	661.0
98.96	630.0
98.97	623.0
98.98	671.0
98.99	640.0
99.0	618.0
99.01	620.0
99.02	642.0
99.03	649.0
99.04	655.0
99.05	647.0
99.06	631.0
99.07	630.0
99.08	616.0
99.09	637.0
99.1	621.0
99.11	642.0
99.12	650.0
99.13	617.0
99.14	640.0
99.15	632.0
99.16	603.0
99.17	631.0
99.18	656.0
99.19	668.0
99.2	658.0
99.21	646.0
99.22	651.0
99.23	620.0
99.24	610.0
99.25	647.0
99.26	667.0
99.27	684.0
99.28	660.0
99.29	639.0
99.3	652.0
99.31	665.0
99.32	642.0
99.33	642.0
99.34	666.0
99.35	627.0
99.36	678.0
99.37	670.0
99.38	656.0
99.39	675.0
99.4	647.0
99.41	656.0
99.42	665.0
99.43	657.0
99.44	651.0
99.45	663.0
99.46	654.0
99.47	618.0
99.48	614.0
99.49	611.0
99.5	625.0
99.51	646.0
99.52	631.0
99.53	642.0
99.54	634.0
99.55	612.0
99.56	614.0
99.57	618.0
99.58	625.0
99.59	671.0
99.6	666.0
99.61	669.0
99.62	688.0
99.63	654.0
99.64	631.0
99.65	638.0
99.66	652.0
99.67	626.0
99.68	614.0
99.69	627.0
99.7	666.0
99.71	676.0
99.72	676.0
99.73	647.0
99.74	655.0
99.75	682.0
99.76	662.0
99.77	658.0
99.78	666.0
99.79	651.0
99.8	651.0
99.81	647.0
99.82	630.0
99.83	648.0
99.84	645.0
99.85	669.0
99.86	642.0
99.87	659.0
99.88	640.0
99.89	649.0
99.9	650.0
99.91	657.0
99.92	637.0
99.93	644.0
99.94	647.0
99.95	641.0
99.96	634.0
99.97	640.0
99.98	641.0
99.99	644.0
100.0	631.0
