Offstoi_LiMnTiO4_950
Wavelength = 1.54059 Ã… (Cu)
10.0	1750.0
10.01	1732.0
10.02	1664.0
10.03	1647.0
10.04	1748.0
10.05	1724.0
10.06	1738.0
10.07	1738.0
10.08	1756.0
10.09	1783.0
10.1	1768.0
10.11	1664.0
10.12	1683.0
10.13	1703.0
10.14	1726.0
10.15	1743.0
10.16	1799.0
10.17	1799.0
10.18	1713.0
10.19	1734.0
10.2	1778.0
10.21	1762.0
10.22	1799.0
10.23	1803.0
10.24	1824.0
10.25	1840.0
10.26	1790.0
10.27	1792.0
10.28	1790.0
10.29	1798.0
10.3	1773.0
10.31	1810.0
10.32	1807.0
10.33	1773.0
10.34	1807.0
10.35	1827.0
10.36	1809.0
10.37	1802.0
10.38	1752.0
10.39	1751.0
10.4	1776.0
10.41	1820.0
10.42	1779.0
10.43	1783.0
10.44	1771.0
10.45	1729.0
10.46	1743.0
10.47	1730.0
10.48	1713.0
10.49	1759.0
10.5	1798.0
10.51	1810.0
10.52	1835.0
10.53	1845.0
10.54	1859.0
10.55	1793.0
10.56	1798.0
10.57	1812.0
10.58	1851.0
10.59	1870.0
10.6	1822.0
10.61	1787.0
10.62	1729.0
10.63	1788.0
10.64	1864.0
10.65	1841.0
10.66	1824.0
10.67	1806.0
10.68	1827.0
10.69	1836.0
10.7	1820.0
10.71	1815.0
10.72	1856.0
10.73	1812.0
10.74	1777.0
10.75	1890.0
10.76	1853.0
10.77	1824.0
10.78	1870.0
10.79	1827.0
10.8	1852.0
10.81	1787.0
10.82	1839.0
10.83	1838.0
10.84	1811.0
10.85	1811.0
10.86	1830.0
10.87	1844.0
10.88	1860.0
10.89	1838.0
10.9	1856.0
10.91	1851.0
10.92	1875.0
10.93	1966.0
10.94	1849.0
10.95	1827.0
10.96	1848.0
10.97	1832.0
10.98	1834.0
10.99	1855.0
11.0	1831.0
11.01	1816.0
11.02	1855.0
11.03	1891.0
11.04	1862.0
11.05	1842.0
11.06	1854.0
11.07	1903.0
11.08	1868.0
11.09	1811.0
11.1	1825.0
11.11	1832.0
11.12	1864.0
11.13	1849.0
11.14	1873.0
11.15	1836.0
11.16	1852.0
11.17	1790.0
11.18	1812.0
11.19	1807.0
11.2	1801.0
11.21	1880.0
11.22	1895.0
11.23	1832.0
11.24	1835.0
11.25	1828.0
11.26	1890.0
11.27	1898.0
11.28	1903.0
11.29	1900.0
11.3	1889.0
11.31	1901.0
11.32	1850.0
11.33	1840.0
11.34	1860.0
11.35	1885.0
11.36	1885.0
11.37	1856.0
11.38	1863.0
11.39	1932.0
11.4	1915.0
11.41	1904.0
11.42	1901.0
11.43	1935.0
11.44	1880.0
11.45	1842.0
11.46	1850.0
11.47	1881.0
11.48	1864.0
11.49	1911.0
11.5	1907.0
11.51	1895.0
11.52	1890.0
11.53	1907.0
11.54	1893.0
11.55	1915.0
11.56	1927.0
11.57	1833.0
11.58	1854.0
11.59	1819.0
11.6	1882.0
11.61	1892.0
11.62	1928.0
11.63	1903.0
11.64	1913.0
11.65	1940.0
11.66	1943.0
11.67	1894.0
11.68	1903.0
11.69	1927.0
11.7	1896.0
11.71	1910.0
11.72	1931.0
11.73	1880.0
11.74	1920.0
11.75	1946.0
11.76	1917.0
11.77	1976.0
11.78	1919.0
11.79	1949.0
11.8	1935.0
11.81	1917.0
11.82	1895.0
11.83	1873.0
11.84	1941.0
11.85	1890.0
11.86	1916.0
11.87	1904.0
11.88	1924.0
11.89	1969.0
11.9	1956.0
11.91	1894.0
11.92	1874.0
11.93	1920.0
11.94	1920.0
11.95	1948.0
11.96	1996.0
11.97	1923.0
11.98	1888.0
11.99	1896.0
12.0	1896.0
12.01	1865.0
12.02	1891.0
12.03	1933.0
12.04	1969.0
12.05	1950.0
12.06	1957.0
12.07	2046.0
12.08	2005.0
12.09	1907.0
12.1	1905.0
12.11	1907.0
12.12	1920.0
12.13	1960.0
12.14	1981.0
12.15	2004.0
12.16	1986.0
12.17	1991.0
12.18	1958.0
12.19	1921.0
12.2	1862.0
12.21	1870.0
12.22	1930.0
12.23	1952.0
12.24	1931.0
12.25	1928.0
12.26	1923.0
12.27	1919.0
12.28	1965.0
12.29	1975.0
12.3	1957.0
12.31	1943.0
12.32	1983.0
12.33	1983.0
12.34	1933.0
12.35	1930.0
12.36	1969.0
12.37	1951.0
12.38	1907.0
12.39	1980.0
12.4	1917.0
12.41	1998.0
12.42	1994.0
12.43	1919.0
12.44	1963.0
12.45	1927.0
12.46	1972.0
12.47	1999.0
12.48	1967.0
12.49	1999.0
12.5	1991.0
12.51	2015.0
12.52	2004.0
12.53	2000.0
12.54	1986.0
12.55	1934.0
12.56	1940.0
12.57	1955.0
12.58	1970.0
12.59	2003.0
12.6	1992.0
12.61	1987.0
12.62	2003.0
12.63	1958.0
12.64	2007.0
12.65	2001.0
12.66	1970.0
12.67	1979.0
12.68	2003.0
12.69	1934.0
12.7	1991.0
12.71	1982.0
12.72	2003.0
12.73	1994.0
12.74	2013.0
12.75	1954.0
12.76	1952.0
12.77	1968.0
12.78	1990.0
12.79	2017.0
12.8	1998.0
12.81	1969.0
12.82	1996.0
12.83	2006.0
12.84	2034.0
12.85	2052.0
12.86	2020.0
12.87	2000.0
12.88	1974.0
12.89	1979.0
12.9	2003.0
12.91	1979.0
12.92	2022.0
12.93	1998.0
12.94	2012.0
12.95	2010.0
12.96	2028.0
12.97	1994.0
12.98	1999.0
12.99	1999.0
13.0	2012.0
13.01	2037.0
13.02	2056.0
13.03	2010.0
13.04	2039.0
13.05	2043.0
13.06	2077.0
13.07	2043.0
13.08	1990.0
13.09	2002.0
13.1	2017.0
13.11	1985.0
13.12	1988.0
13.13	1993.0
13.14	2016.0
13.15	1993.0
13.16	2023.0
13.17	1995.0
13.18	1996.0
13.19	2055.0
13.2	2043.0
13.21	2002.0
13.22	1957.0
13.23	1974.0
13.24	1961.0
13.25	2071.0
13.26	2016.0
13.27	2031.0
13.28	2063.0
13.29	1996.0
13.3	2003.0
13.31	2049.0
13.32	2054.0
13.33	2043.0
13.34	2039.0
13.35	2051.0
13.36	2101.0
13.37	2051.0
13.38	2048.0
13.39	2073.0
13.4	2066.0
13.41	2038.0
13.42	2060.0
13.43	2080.0
13.44	2041.0
13.45	2045.0
13.46	2065.0
13.47	2086.0
13.48	2070.0
13.49	2055.0
13.5	2086.0
13.51	2106.0
13.52	2020.0
13.53	2009.0
13.54	2044.0
13.55	2073.0
13.56	2071.0
13.57	2033.0
13.58	2076.0
13.59	2160.0
13.6	2092.0
13.61	2037.0
13.62	2098.0
13.63	2075.0
13.64	2093.0
13.65	2067.0
13.66	2050.0
13.67	2092.0
13.68	2040.0
13.69	2020.0
13.7	2060.0
13.71	2059.0
13.72	2048.0
13.73	2078.0
13.74	2099.0
13.75	2058.0
13.76	2022.0
13.77	2052.0
13.78	2083.0
13.79	2065.0
13.8	2096.0
13.81	2086.0
13.82	2101.0
13.83	2105.0
13.84	2094.0
13.85	2055.0
13.86	2063.0
13.87	2120.0
13.88	2081.0
13.89	2070.0
13.9	2125.0
13.91	2062.0
13.92	2078.0
13.93	2074.0
13.94	2112.0
13.95	2112.0
13.96	2124.0
13.97	2110.0
13.98	2117.0
13.99	2132.0
14.0	2113.0
14.01	2138.0
14.02	2149.0
14.03	2098.0
14.04	2046.0
14.05	2055.0
14.06	2074.0
14.07	2054.0
14.08	2072.0
14.09	2118.0
14.1	2077.0
14.11	2085.0
14.12	2122.0
14.13	2111.0
14.14	2127.0
14.15	2112.0
14.16	2087.0
14.17	2117.0
14.18	2141.0
14.19	2116.0
14.2	2095.0
14.21	2104.0
14.22	2121.0
14.23	2129.0
14.24	2152.0
14.25	2139.0
14.26	2111.0
14.27	2108.0
14.28	2118.0
14.29	2112.0
14.3	2112.0
14.31	2104.0
14.32	2055.0
14.33	2042.0
14.34	2037.0
14.35	2082.0
14.36	2151.0
14.37	2129.0
14.38	2165.0
14.39	2161.0
14.4	2132.0
14.41	2148.0
14.42	2150.0
14.43	2102.0
14.44	2080.0
14.45	2108.0
14.46	2145.0
14.47	2113.0
14.48	2073.0
14.49	2066.0
14.5	2135.0
14.51	2154.0
14.52	2121.0
14.53	2068.0
14.54	2142.0
14.55	2164.0
14.56	2173.0
14.57	2140.0
14.58	2084.0
14.59	2079.0
14.6	2061.0
14.61	2105.0
14.62	2088.0
14.63	2091.0
14.64	2085.0
14.65	2080.0
14.66	2087.0
14.67	2085.0
14.68	2090.0
14.69	2106.0
14.7	2128.0
14.71	2104.0
14.72	2117.0
14.73	2121.0
14.74	2121.0
14.75	2090.0
14.76	2086.0
14.77	2091.0
14.78	2150.0
14.79	2147.0
14.8	2115.0
14.81	2106.0
14.82	2107.0
14.83	2122.0
14.84	2119.0
14.85	2121.0
14.86	2152.0
14.87	2132.0
14.88	2104.0
14.89	2086.0
14.9	2105.0
14.91	2092.0
14.92	2105.0
14.93	2088.0
14.94	2098.0
14.95	2108.0
14.96	2164.0
14.97	2148.0
14.98	2083.0
14.99	2111.0
15.0	2102.0
15.01	2047.0
15.02	2067.0
15.03	2166.0
15.04	2173.0
15.05	2111.0
15.06	2105.0
15.07	2113.0
15.08	2115.0
15.09	2138.0
15.1	2144.0
15.11	2138.0
15.12	2150.0
15.13	2128.0
15.14	2106.0
15.15	2128.0
15.16	2160.0
15.17	2139.0
15.18	2130.0
15.19	2118.0
15.2	2121.0
15.21	2129.0
15.22	2121.0
15.23	2078.0
15.24	2108.0
15.25	2096.0
15.26	2127.0
15.27	2105.0
15.28	2026.0
15.29	2032.0
15.3	2056.0
15.31	2067.0
15.32	2094.0
15.33	2084.0
15.34	2080.0
15.35	2083.0
15.36	2095.0
15.37	2101.0
15.38	2074.0
15.39	2079.0
15.4	2064.0
15.41	2062.0
15.42	2097.0
15.43	2126.0
15.44	2127.0
15.45	2066.0
15.46	2078.0
15.47	2155.0
15.48	2132.0
15.49	2074.0
15.5	2067.0
15.51	2081.0
15.52	2087.0
15.53	2073.0
15.54	2100.0
15.55	2118.0
15.56	2114.0
15.57	2099.0
15.58	2075.0
15.59	2114.0
15.6	2096.0
15.61	2052.0
15.62	2057.0
15.63	2081.0
15.64	2074.0
15.65	2081.0
15.66	2025.0
15.67	2018.0
15.68	2039.0
15.69	2046.0
15.7	2020.0
15.71	2035.0
15.72	2092.0
15.73	2095.0
15.74	2057.0
15.75	2034.0
15.76	2050.0
15.77	2052.0
15.78	2039.0
15.79	2022.0
15.8	2053.0
15.81	2072.0
15.82	2081.0
15.83	2091.0
15.84	2073.0
15.85	2030.0
15.86	2025.0
15.87	2039.0
15.88	2045.0
15.89	2042.0
15.9	2051.0
15.91	2052.0
15.92	2060.0
15.93	2062.0
15.94	2049.0
15.95	2050.0
15.96	2090.0
15.97	2080.0
15.98	2099.0
15.99	2135.0
16.0	2093.0
16.01	2063.0
16.02	2079.0
16.03	2081.0
16.04	2049.0
16.05	2037.0
16.06	2036.0
16.07	2041.0
16.08	2036.0
16.09	2055.0
16.1	2062.0
16.11	2079.0
16.12	2071.0
16.13	2044.0
16.14	2019.0
16.15	1993.0
16.16	1976.0
16.17	2016.0
16.18	2019.0
16.19	2029.0
16.2	2039.0
16.21	2000.0
16.22	2011.0
16.23	2031.0
16.24	2071.0
16.25	2097.0
16.26	2061.0
16.27	1994.0
16.28	1992.0
16.29	2064.0
16.3	2091.0
16.31	2080.0
16.32	2074.0
16.33	2069.0
16.34	2077.0
16.35	2075.0
16.36	2062.0
16.37	2026.0
16.38	1992.0
16.39	2002.0
16.4	2029.0
16.41	2014.0
16.42	1998.0
16.43	2028.0
16.44	2050.0
16.45	2028.0
16.46	2020.0
16.47	2031.0
16.48	2058.0
16.49	2088.0
16.5	2027.0
16.51	2003.0
16.52	2034.0
16.53	2032.0
16.54	2008.0
16.55	1975.0
16.56	1972.0
16.57	2032.0
16.58	2045.0
16.59	2019.0
16.6	2007.0
16.61	2000.0
16.62	1982.0
16.63	2023.0
16.64	2047.0
16.65	2027.0
16.66	1962.0
16.67	1970.0
16.68	2000.0
16.69	1950.0
16.7	1950.0
16.71	1997.0
16.72	2031.0
16.73	2020.0
16.74	2015.0
16.75	2043.0
16.76	2041.0
16.77	2032.0
16.78	2027.0
16.79	2025.0
16.8	2022.0
16.81	2012.0
16.82	2015.0
16.83	2035.0
16.84	2012.0
16.85	1996.0
16.86	1997.0
16.87	2019.0
16.88	2019.0
16.89	2005.0
16.9	2011.0
16.91	1996.0
16.92	2008.0
16.93	2028.0
16.94	2031.0
16.95	2051.0
16.96	2024.0
16.97	1988.0
16.98	2000.0
16.99	1994.0
17.0	1972.0
17.01	1987.0
17.02	1997.0
17.03	2012.0
17.04	2030.0
17.05	1980.0
17.06	1961.0
17.07	1999.0
17.08	1982.0
17.09	1974.0
17.1	1989.0
17.11	2000.0
17.12	1981.0
17.13	1944.0
17.14	1989.0
17.15	2028.0
17.16	2003.0
17.17	1973.0
17.18	1986.0
17.19	2029.0
17.2	2042.0
17.21	2015.0
17.22	2006.0
17.23	2044.0
17.24	2060.0
17.25	2017.0
17.26	1966.0
17.27	1951.0
17.28	1967.0
17.29	1978.0
17.3	1999.0
17.31	2016.0
17.32	2034.0
17.33	2035.0
17.34	2027.0
17.35	1995.0
17.36	2008.0
17.37	2049.0
17.38	2011.0
17.39	1999.0
17.4	2021.0
17.41	2029.0
17.42	2037.0
17.43	2045.0
17.44	2056.0
17.45	2033.0
17.46	2015.0
17.47	2039.0
17.48	2030.0
17.49	2013.0
17.5	2033.0
17.51	2051.0
17.52	2063.0
17.53	2051.0
17.54	2028.0
17.55	2019.0
17.56	2052.0
17.57	2084.0
17.58	2038.0
17.59	1980.0
17.6	1965.0
17.61	1971.0
17.62	1990.0
17.63	2007.0
17.64	2013.0
17.65	2049.0
17.66	2058.0
17.67	2042.0
17.68	2013.0
17.69	2000.0
17.7	2024.0
17.71	2032.0
17.72	2028.0
17.73	2040.0
17.74	2036.0
17.75	2024.0
17.76	2051.0
17.77	2066.0
17.78	2048.0
17.79	2021.0
17.8	2049.0
17.81	2106.0
17.82	2103.0
17.83	2067.0
17.84	2040.0
17.85	2054.0
17.86	2102.0
17.87	2103.0
17.88	2078.0
17.89	2053.0
17.9	2054.0
17.91	2099.0
17.92	2114.0
17.93	2108.0
17.94	2114.0
17.95	2128.0
17.96	2135.0
17.97	2174.0
17.98	2195.0
17.99	2179.0
18.0	2207.0
18.01	2206.0
18.02	2183.0
18.03	2184.0
18.04	2207.0
18.05	2226.0
18.06	2254.0
18.07	2271.0
18.08	2268.0
18.09	2313.0
18.1	2397.0
18.11	2455.0
18.12	2488.0
18.13	2512.0
18.14	2531.0
18.15	2599.0
18.16	2668.0
18.17	2750.0
18.18	2862.0
18.19	2962.0
18.2	3096.0
18.21	3242.0
18.22	3353.0
18.23	3518.0
18.24	3759.0
18.25	3985.0
18.26	4256.0
18.27	4620.0
18.28	5029.0
18.29	5436.0
18.3	5890.0
18.31	6425.0
18.32	6933.0
18.33	7325.0
18.34	7783.0
18.35	8182.0
18.36	8221.0
18.37	8026.0
18.38	7668.0
18.39	7192.0
18.4	6595.0
18.41	5926.0
18.42	5278.0
18.43	4696.0
18.44	4241.0
18.45	3902.0
18.46	3600.0
18.47	3280.0
18.48	3042.0
18.49	2910.0
18.5	2827.0
18.51	2784.0
18.52	2702.0
18.53	2576.0
18.54	2488.0
18.55	2433.0
18.56	2405.0
18.57	2368.0
18.58	2324.0
18.59	2287.0
18.6	2299.0
18.61	2256.0
18.62	2221.0
18.63	2204.0
18.64	2140.0
18.65	2127.0
18.66	2174.0
18.67	2191.0
18.68	2163.0
18.69	2120.0
18.7	2095.0
18.71	2093.0
18.72	2113.0
18.73	2098.0
18.74	2031.0
18.75	2022.0
18.76	2066.0
18.77	2058.0
18.78	2051.0
18.79	2072.0
18.8	2056.0
18.81	2021.0
18.82	1983.0
18.83	1979.0
18.84	2016.0
18.85	2023.0
18.86	2010.0
18.87	1974.0
18.88	1973.0
18.89	1987.0
18.9	1993.0
18.91	1986.0
18.92	1971.0
18.93	1943.0
18.94	1938.0
18.95	1952.0
18.96	1968.0
18.97	1933.0
18.98	1882.0
18.99	1967.0
19.0	2045.0
19.01	2005.0
19.02	1946.0
19.03	1917.0
19.04	1899.0
19.05	1894.0
19.06	1925.0
19.07	1970.0
19.08	1986.0
19.09	1990.0
19.1	1978.0
19.11	1963.0
19.12	1951.0
19.13	1936.0
19.14	1920.0
19.15	1922.0
19.16	1953.0
19.17	1929.0
19.18	1911.0
19.19	1913.0
19.2	1937.0
19.21	1964.0
19.22	1950.0
19.23	1929.0
19.24	1933.0
19.25	1915.0
19.26	1903.0
19.27	1916.0
19.28	1908.0
19.29	1922.0
19.3	1944.0
19.31	1947.0
19.32	1955.0
19.33	1978.0
19.34	1937.0
19.35	1913.0
19.36	1920.0
19.37	1891.0
19.38	1912.0
19.39	1931.0
19.4	1902.0
19.41	1864.0
19.42	1867.0
19.43	1898.0
19.44	1903.0
19.45	1937.0
19.46	1885.0
19.47	1861.0
19.48	1878.0
19.49	1882.0
19.5	1880.0
19.51	1899.0
19.52	1886.0
19.53	1875.0
19.54	1869.0
19.55	1881.0
19.56	1905.0
19.57	1937.0
19.58	1903.0
19.59	1886.0
19.6	1909.0
19.61	1906.0
19.62	1870.0
19.63	1844.0
19.64	1903.0
19.65	1922.0
19.66	1918.0
19.67	1914.0
19.68	1893.0
19.69	1902.0
19.7	1894.0
19.71	1883.0
19.72	1884.0
19.73	1867.0
19.74	1830.0
19.75	1857.0
19.76	1900.0
19.77	1878.0
19.78	1909.0
19.79	1955.0
19.8	1924.0
19.81	1892.0
19.82	1879.0
19.83	1862.0
19.84	1880.0
19.85	1871.0
19.86	1850.0
19.87	1834.0
19.88	1850.0
19.89	1872.0
19.9	1870.0
19.91	1844.0
19.92	1863.0
19.93	1874.0
19.94	1842.0
19.95	1825.0
19.96	1872.0
19.97	1881.0
19.98	1876.0
19.99	1891.0
20.0	1911.0
20.01	1869.0
20.02	1862.0
20.03	1902.0
20.04	1882.0
20.05	1806.0
20.06	1798.0
20.07	1816.0
20.08	1799.0
20.09	1772.0
20.1	1799.0
20.11	1817.0
20.12	1831.0
20.13	1841.0
20.14	1834.0
20.15	1835.0
20.16	1823.0
20.17	1815.0
20.18	1833.0
20.19	1816.0
20.2	1787.0
20.21	1795.0
20.22	1792.0
20.23	1783.0
20.24	1770.0
20.25	1782.0
20.26	1861.0
20.27	1876.0
20.28	1855.0
20.29	1791.0
20.3	1819.0
20.31	1810.0
20.32	1816.0
20.33	1828.0
20.34	1815.0
20.35	1810.0
20.36	1836.0
20.37	1833.0
20.38	1791.0
20.39	1826.0
20.4	1862.0
20.41	1842.0
20.42	1809.0
20.43	1803.0
20.44	1827.0
20.45	1812.0
20.46	1828.0
20.47	1793.0
20.48	1747.0
20.49	1782.0
20.5	1786.0
20.51	1775.0
20.52	1799.0
20.53	1785.0
20.54	1827.0
20.55	1780.0
20.56	1750.0
20.57	1804.0
20.58	1815.0
20.59	1796.0
20.6	1826.0
20.61	1874.0
20.62	1835.0
20.63	1817.0
20.64	1850.0
20.65	1806.0
20.66	1772.0
20.67	1738.0
20.68	1749.0
20.69	1743.0
20.7	1753.0
20.71	1746.0
20.72	1756.0
20.73	1731.0
20.74	1757.0
20.75	1818.0
20.76	1782.0
20.77	1736.0
20.78	1698.0
20.79	1734.0
20.8	1778.0
20.81	1802.0
20.82	1763.0
20.83	1758.0
20.84	1750.0
20.85	1706.0
20.86	1722.0
20.87	1765.0
20.88	1728.0
20.89	1740.0
20.9	1744.0
20.91	1757.0
20.92	1744.0
20.93	1734.0
20.94	1713.0
20.95	1752.0
20.96	1727.0
20.97	1800.0
20.98	1776.0
20.99	1795.0
21.0	1808.0
21.01	1773.0
21.02	1749.0
21.03	1745.0
21.04	1705.0
21.05	1713.0
21.06	1775.0
21.07	1780.0
21.08	1771.0
21.09	1716.0
21.1	1715.0
21.11	1722.0
21.12	1739.0
21.13	1769.0
21.14	1783.0
21.15	1756.0
21.16	1755.0
21.17	1727.0
21.18	1740.0
21.19	1759.0
21.2	1779.0
21.21	1757.0
21.22	1790.0
21.23	1806.0
21.24	1737.0
21.25	1723.0
21.26	1731.0
21.27	1685.0
21.28	1660.0
21.29	1691.0
21.3	1726.0
21.31	1715.0
21.32	1692.0
21.33	1694.0
21.34	1727.0
21.35	1722.0
21.36	1741.0
21.37	1760.0
21.38	1722.0
21.39	1737.0
21.4	1714.0
21.41	1709.0
21.42	1670.0
21.43	1682.0
21.44	1711.0
21.45	1747.0
21.46	1762.0
21.47	1719.0
21.48	1723.0
21.49	1722.0
21.5	1707.0
21.51	1682.0
21.52	1680.0
21.53	1656.0
21.54	1679.0
21.55	1699.0
21.56	1699.0
21.57	1680.0
21.58	1712.0
21.59	1691.0
21.6	1674.0
21.61	1701.0
21.62	1691.0
21.63	1732.0
21.64	1740.0
21.65	1709.0
21.66	1708.0
21.67	1713.0
21.68	1691.0
21.69	1661.0
21.7	1681.0
21.71	1687.0
21.72	1717.0
21.73	1691.0
21.74	1672.0
21.75	1653.0
21.76	1638.0
21.77	1649.0
21.78	1705.0
21.79	1662.0
21.8	1614.0
21.81	1634.0
21.82	1691.0
21.83	1655.0
21.84	1668.0
21.85	1662.0
21.86	1655.0
21.87	1651.0
21.88	1682.0
21.89	1667.0
21.9	1650.0
21.91	1651.0
21.92	1708.0
21.93	1713.0
21.94	1651.0
21.95	1672.0
21.96	1666.0
21.97	1680.0
21.98	1698.0
21.99	1692.0
22.0	1643.0
22.01	1682.0
22.02	1663.0
22.03	1634.0
22.04	1644.0
22.05	1630.0
22.06	1687.0
22.07	1672.0
22.08	1628.0
22.09	1633.0
22.1	1665.0
22.11	1675.0
22.12	1666.0
22.13	1618.0
22.14	1637.0
22.15	1691.0
22.16	1642.0
22.17	1615.0
22.18	1655.0
22.19	1673.0
22.2	1668.0
22.21	1674.0
22.22	1658.0
22.23	1569.0
22.24	1574.0
22.25	1618.0
22.26	1621.0
22.27	1634.0
22.28	1658.0
22.29	1627.0
22.3	1639.0
22.31	1627.0
22.32	1624.0
22.33	1641.0
22.34	1677.0
22.35	1708.0
22.36	1730.0
22.37	1684.0
22.38	1662.0
22.39	1638.0
22.4	1685.0
22.41	1692.0
22.42	1714.0
22.43	1753.0
22.44	1659.0
22.45	1713.0
22.46	1754.0
22.47	1712.0
22.48	1751.0
22.49	1788.0
22.5	1749.0
22.51	1729.0
22.52	1676.0
22.53	1694.0
22.54	1705.0
22.55	1673.0
22.56	1704.0
22.57	1752.0
22.58	1707.0
22.59	1699.0
22.6	1659.0
22.61	1670.0
22.62	1657.0
22.63	1681.0
22.64	1632.0
22.65	1615.0
22.66	1551.0
22.67	1554.0
22.68	1548.0
22.69	1581.0
22.7	1646.0
22.71	1654.0
22.72	1582.0
22.73	1554.0
22.74	1577.0
22.75	1678.0
22.76	1627.0
22.77	1559.0
22.78	1588.0
22.79	1620.0
22.8	1615.0
22.81	1626.0
22.82	1571.0
22.83	1621.0
22.84	1607.0
22.85	1624.0
22.86	1590.0
22.87	1606.0
22.88	1634.0
22.89	1593.0
22.9	1584.0
22.91	1612.0
22.92	1612.0
22.93	1578.0
22.94	1573.0
22.95	1569.0
22.96	1558.0
22.97	1592.0
22.98	1557.0
22.99	1593.0
23.0	1585.0
23.01	1592.0
23.02	1590.0
23.03	1565.0
23.04	1574.0
23.05	1536.0
23.06	1584.0
23.07	1559.0
23.08	1550.0
23.09	1590.0
23.1	1626.0
23.11	1583.0
23.12	1564.0
23.13	1547.0
23.14	1577.0
23.15	1608.0
23.16	1579.0
23.17	1548.0
23.18	1551.0
23.19	1589.0
23.2	1579.0
23.21	1544.0
23.22	1549.0
23.23	1555.0
23.24	1557.0
23.25	1593.0
23.26	1570.0
23.27	1581.0
23.28	1599.0
23.29	1595.0
23.3	1536.0
23.31	1587.0
23.32	1569.0
23.33	1579.0
23.34	1601.0
23.35	1583.0
23.36	1583.0
23.37	1628.0
23.38	1597.0
23.39	1589.0
23.4	1585.0
23.41	1550.0
23.42	1552.0
23.43	1553.0
23.44	1586.0
23.45	1570.0
23.46	1550.0
23.47	1556.0
23.48	1557.0
23.49	1546.0
23.5	1551.0
23.51	1590.0
23.52	1570.0
23.53	1552.0
23.54	1544.0
23.55	1563.0
23.56	1551.0
23.57	1566.0
23.58	1557.0
23.59	1570.0
23.6	1569.0
23.61	1572.0
23.62	1568.0
23.63	1577.0
23.64	1550.0
23.65	1555.0
23.66	1567.0
23.67	1553.0
23.68	1522.0
23.69	1542.0
23.7	1572.0
23.71	1595.0
23.72	1542.0
23.73	1524.0
23.74	1557.0
23.75	1501.0
23.76	1480.0
23.77	1510.0
23.78	1484.0
23.79	1479.0
23.8	1494.0
23.81	1513.0
23.82	1520.0
23.83	1555.0
23.84	1485.0
23.85	1450.0
23.86	1567.0
23.87	1537.0
23.88	1525.0
23.89	1546.0
23.9	1558.0
23.91	1495.0
23.92	1485.0
23.93	1488.0
23.94	1493.0
23.95	1527.0
23.96	1521.0
23.97	1511.0
23.98	1464.0
23.99	1485.0
24.0	1499.0
24.01	1489.0
24.02	1479.0
24.03	1496.0
24.04	1532.0
24.05	1531.0
24.06	1536.0
24.07	1577.0
24.08	1502.0
24.09	1486.0
24.1	1494.0
24.11	1516.0
24.12	1473.0
24.13	1494.0
24.14	1575.0
24.15	1545.0
24.16	1507.0
24.17	1498.0
24.18	1547.0
24.19	1530.0
24.2	1504.0
24.21	1507.0
24.22	1528.0
24.23	1518.0
24.24	1500.0
24.25	1488.0
24.26	1516.0
24.27	1474.0
24.28	1483.0
24.29	1487.0
24.3	1472.0
24.31	1474.0
24.32	1499.0
24.33	1495.0
24.34	1477.0
24.35	1487.0
24.36	1453.0
24.37	1460.0
24.38	1480.0
24.39	1465.0
24.4	1467.0
24.41	1460.0
24.42	1457.0
24.43	1475.0
24.44	1457.0
24.45	1448.0
24.46	1479.0
24.47	1478.0
24.48	1469.0
24.49	1426.0
24.5	1467.0
24.51	1478.0
24.52	1485.0
24.53	1458.0
24.54	1432.0
24.55	1442.0
24.56	1440.0
24.57	1445.0
24.58	1460.0
24.59	1448.0
24.6	1423.0
24.61	1435.0
24.62	1471.0
24.63	1503.0
24.64	1439.0
24.65	1421.0
24.66	1433.0
24.67	1441.0
24.68	1451.0
24.69	1458.0
24.7	1440.0
24.71	1443.0
24.72	1464.0
24.73	1463.0
24.74	1426.0
24.75	1463.0
24.76	1456.0
24.77	1475.0
24.78	1460.0
24.79	1429.0
24.8	1426.0
24.81	1416.0
24.82	1435.0
24.83	1447.0
24.84	1445.0
24.85	1444.0
24.86	1440.0
24.87	1428.0
24.88	1394.0
24.89	1382.0
24.9	1425.0
24.91	1471.0
24.92	1433.0
24.93	1433.0
24.94	1442.0
24.95	1392.0
24.96	1412.0
24.97	1388.0
24.98	1395.0
24.99	1417.0
25.0	1400.0
25.01	1411.0
25.02	1423.0
25.03	1429.0
25.04	1404.0
25.05	1391.0
25.06	1383.0
25.07	1377.0
25.08	1398.0
25.09	1396.0
25.1	1385.0
25.11	1416.0
25.12	1432.0
25.13	1425.0
25.14	1404.0
25.15	1391.0
25.16	1410.0
25.17	1402.0
25.18	1413.0
25.19	1400.0
25.2	1369.0
25.21	1407.0
25.22	1427.0
25.23	1424.0
25.24	1394.0
25.25	1372.0
25.26	1382.0
25.27	1385.0
25.28	1397.0
25.29	1405.0
25.3	1370.0
25.31	1351.0
25.32	1374.0
25.33	1361.0
25.34	1376.0
25.35	1372.0
25.36	1408.0
25.37	1430.0
25.38	1401.0
25.39	1347.0
25.4	1366.0
25.41	1434.0
25.42	1424.0
25.43	1391.0
25.44	1415.0
25.45	1417.0
25.46	1395.0
25.47	1389.0
25.48	1385.0
25.49	1390.0
25.5	1376.0
25.51	1358.0
25.52	1402.0
25.53	1416.0
25.54	1411.0
25.55	1399.0
25.56	1369.0
25.57	1375.0
25.58	1363.0
25.59	1360.0
25.6	1390.0
25.61	1403.0
25.62	1378.0
25.63	1357.0
25.64	1361.0
25.65	1357.0
25.66	1350.0
25.67	1391.0
25.68	1403.0
25.69	1374.0
25.7	1357.0
25.71	1377.0
25.72	1407.0
25.73	1389.0
25.74	1362.0
25.75	1376.0
25.76	1388.0
25.77	1382.0
25.78	1379.0
25.79	1378.0
25.8	1343.0
25.81	1349.0
25.82	1371.0
25.83	1394.0
25.84	1377.0
25.85	1348.0
25.86	1356.0
25.87	1355.0
25.88	1370.0
25.89	1393.0
25.9	1380.0
25.91	1351.0
25.92	1338.0
25.93	1349.0
25.94	1331.0
25.95	1311.0
25.96	1331.0
25.97	1332.0
25.98	1360.0
25.99	1401.0
26.0	1395.0
26.01	1363.0
26.02	1312.0
26.03	1323.0
26.04	1353.0
26.05	1344.0
26.06	1365.0
26.07	1374.0
26.08	1355.0
26.09	1348.0
26.1	1369.0
26.11	1369.0
26.12	1339.0
26.13	1363.0
26.14	1388.0
26.15	1365.0
26.16	1344.0
26.17	1353.0
26.18	1361.0
26.19	1352.0
26.2	1349.0
26.21	1322.0
26.22	1302.0
26.23	1289.0
26.24	1289.0
26.25	1280.0
26.26	1288.0
26.27	1327.0
26.28	1333.0
26.29	1336.0
26.3	1361.0
26.31	1367.0
26.32	1355.0
26.33	1358.0
26.34	1353.0
26.35	1333.0
26.36	1346.0
26.37	1355.0
26.38	1322.0
26.39	1297.0
26.4	1300.0
26.41	1308.0
26.42	1315.0
26.43	1305.0
26.44	1287.0
26.45	1307.0
26.46	1331.0
26.47	1333.0
26.48	1341.0
26.49	1330.0
26.5	1338.0
26.51	1372.0
26.52	1340.0
26.53	1299.0
26.54	1324.0
26.55	1339.0
26.56	1303.0
26.57	1291.0
26.58	1323.0
26.59	1302.0
26.6	1283.0
26.61	1326.0
26.62	1363.0
26.63	1340.0
26.64	1299.0
26.65	1298.0
26.66	1310.0
26.67	1322.0
26.68	1317.0
26.69	1295.0
26.7	1296.0
26.71	1300.0
26.72	1278.0
26.73	1259.0
26.74	1279.0
26.75	1306.0
26.76	1326.0
26.77	1298.0
26.78	1263.0
26.79	1276.0
26.8	1278.0
26.81	1272.0
26.82	1300.0
26.83	1306.0
26.84	1276.0
26.85	1277.0
26.86	1295.0
26.87	1280.0
26.88	1276.0
26.89	1300.0
26.9	1306.0
26.91	1295.0
26.92	1290.0
26.93	1289.0
26.94	1276.0
26.95	1263.0
26.96	1268.0
26.97	1273.0
26.98	1270.0
26.99	1261.0
27.0	1268.0
27.01	1273.0
27.02	1264.0
27.03	1262.0
27.04	1261.0
27.05	1265.0
27.06	1244.0
27.07	1241.0
27.08	1248.0
27.09	1247.0
27.1	1258.0
27.11	1270.0
27.12	1263.0
27.13	1232.0
27.14	1239.0
27.15	1256.0
27.16	1228.0
27.17	1219.0
27.18	1237.0
27.19	1228.0
27.2	1204.0
27.21	1213.0
27.22	1241.0
27.23	1242.0
27.24	1229.0
27.25	1227.0
27.26	1234.0
27.27	1255.0
27.28	1261.0
27.29	1218.0
27.3	1207.0
27.31	1235.0
27.32	1243.0
27.33	1230.0
27.34	1226.0
27.35	1220.0
27.36	1208.0
27.37	1233.0
27.38	1240.0
27.39	1207.0
27.4	1207.0
27.41	1220.0
27.42	1213.0
27.43	1230.0
27.44	1245.0
27.45	1237.0
27.46	1218.0
27.47	1238.0
27.48	1263.0
27.49	1251.0
27.5	1220.0
27.51	1188.0
27.52	1171.0
27.53	1202.0
27.54	1227.0
27.55	1216.0
27.56	1225.0
27.57	1224.0
27.58	1218.0
27.59	1217.0
27.6	1233.0
27.61	1238.0
27.62	1231.0
27.63	1221.0
27.64	1223.0
27.65	1227.0
27.66	1213.0
27.67	1214.0
27.68	1220.0
27.69	1223.0
27.7	1250.0
27.71	1263.0
27.72	1216.0
27.73	1209.0
27.74	1247.0
27.75	1239.0
27.76	1199.0
27.77	1186.0
27.78	1191.0
27.79	1192.0
27.8	1185.0
27.81	1184.0
27.82	1185.0
27.83	1203.0
27.84	1211.0
27.85	1193.0
27.86	1172.0
27.87	1174.0
27.88	1211.0
27.89	1219.0
27.9	1187.0
27.91	1180.0
27.92	1174.0
27.93	1192.0
27.94	1188.0
27.95	1168.0
27.96	1190.0
27.97	1215.0
27.98	1214.0
27.99	1217.0
28.0	1212.0
28.01	1233.0
28.02	1232.0
28.03	1178.0
28.04	1167.0
28.05	1169.0
28.06	1146.0
28.07	1154.0
28.08	1196.0
28.09	1206.0
28.1	1203.0
28.11	1208.0
28.12	1180.0
28.13	1168.0
28.14	1183.0
28.15	1181.0
28.16	1185.0
28.17	1176.0
28.18	1160.0
28.19	1161.0
28.2	1166.0
28.21	1171.0
28.22	1153.0
28.23	1169.0
28.24	1196.0
28.25	1169.0
28.26	1159.0
28.27	1204.0
28.28	1205.0
28.29	1179.0
28.3	1157.0
28.31	1156.0
28.32	1190.0
28.33	1205.0
28.34	1177.0
28.35	1193.0
28.36	1202.0
28.37	1190.0
28.38	1191.0
28.39	1192.0
28.4	1183.0
28.41	1177.0
28.42	1180.0
28.43	1195.0
28.44	1198.0
28.45	1179.0
28.46	1188.0
28.47	1189.0
28.48	1163.0
28.49	1174.0
28.5	1171.0
28.51	1156.0
28.52	1182.0
28.53	1177.0
28.54	1141.0
28.55	1121.0
28.56	1144.0
28.57	1136.0
28.58	1132.0
28.59	1145.0
28.6	1150.0
28.61	1173.0
28.62	1150.0
28.63	1137.0
28.64	1154.0
28.65	1157.0
28.66	1167.0
28.67	1180.0
28.68	1189.0
28.69	1194.0
28.7	1182.0
28.71	1163.0
28.72	1169.0
28.73	1164.0
28.74	1155.0
28.75	1173.0
28.76	1180.0
28.77	1149.0
28.78	1119.0
28.79	1166.0
28.8	1155.0
28.81	1139.0
28.82	1136.0
28.83	1141.0
28.84	1165.0
28.85	1173.0
28.86	1143.0
28.87	1126.0
28.88	1138.0
28.89	1140.0
28.9	1130.0
28.91	1129.0
28.92	1144.0
28.93	1164.0
28.94	1134.0
28.95	1137.0
28.96	1155.0
28.97	1142.0
28.98	1134.0
28.99	1088.0
29.0	1109.0
29.01	1136.0
29.02	1111.0
29.03	1114.0
29.04	1121.0
29.05	1139.0
29.06	1138.0
29.07	1149.0
29.08	1126.0
29.09	1129.0
29.1	1157.0
29.11	1128.0
29.12	1122.0
29.13	1144.0
29.14	1166.0
29.15	1163.0
29.16	1153.0
29.17	1157.0
29.18	1167.0
29.19	1165.0
29.2	1133.0
29.21	1127.0
29.22	1125.0
29.23	1119.0
29.24	1146.0
29.25	1158.0
29.26	1144.0
29.27	1148.0
29.28	1143.0
29.29	1089.0
29.3	1048.0
29.31	1098.0
29.32	1128.0
29.33	1140.0
29.34	1138.0
29.35	1118.0
29.36	1135.0
29.37	1151.0
29.38	1157.0
29.39	1121.0
29.4	1111.0
29.41	1116.0
29.42	1152.0
29.43	1153.0
29.44	1133.0
29.45	1125.0
29.46	1109.0
29.47	1086.0
29.48	1103.0
29.49	1117.0
29.5	1116.0
29.51	1099.0
29.52	1090.0
29.53	1093.0
29.54	1130.0
29.55	1161.0
29.56	1121.0
29.57	1115.0
29.58	1138.0
29.59	1132.0
29.6	1139.0
29.61	1110.0
29.62	1147.0
29.63	1136.0
29.64	1116.0
29.65	1085.0
29.66	1123.0
29.67	1142.0
29.68	1119.0
29.69	1089.0
29.7	1095.0
29.71	1132.0
29.72	1135.0
29.73	1130.0
29.74	1134.0
29.75	1139.0
29.76	1130.0
29.77	1128.0
29.78	1109.0
29.79	1095.0
29.8	1124.0
29.81	1131.0
29.82	1145.0
29.83	1137.0
29.84	1136.0
29.85	1156.0
29.86	1114.0
29.87	1110.0
29.88	1147.0
29.89	1157.0
29.9	1130.0
29.91	1145.0
29.92	1139.0
29.93	1147.0
29.94	1140.0
29.95	1153.0
29.96	1195.0
29.97	1221.0
29.98	1194.0
29.99	1241.0
30.0	1264.0
30.01	1237.0
30.02	1264.0
30.03	1273.0
30.04	1339.0
30.05	1331.0
30.06	1388.0
30.07	1478.0
30.08	1522.0
30.09	1590.0
30.1	1650.0
30.11	1702.0
30.12	1790.0
30.13	1929.0
30.14	2010.0
30.15	2051.0
30.16	2095.0
30.17	2150.0
30.18	2117.0
30.19	2066.0
30.2	2001.0
30.21	1934.0
30.22	1895.0
30.23	1835.0
30.24	1749.0
30.25	1687.0
30.26	1609.0
30.27	1580.0
30.28	1531.0
30.29	1442.0
30.3	1388.0
30.31	1310.0
30.32	1295.0
30.33	1252.0
30.34	1194.0
30.35	1225.0
30.36	1210.0
30.37	1139.0
30.38	1142.0
30.39	1152.0
30.4	1135.0
30.41	1082.0
30.42	1080.0
30.43	1117.0
30.44	1112.0
30.45	1137.0
30.46	1129.0
30.47	1100.0
30.48	1111.0
30.49	1143.0
30.5	1147.0
30.51	1124.0
30.52	1114.0
30.53	1077.0
30.54	1082.0
30.55	1076.0
30.56	1068.0
30.57	1096.0
30.58	1108.0
30.59	1110.0
30.6	1111.0
30.61	1116.0
30.62	1053.0
30.63	1057.0
30.64	1047.0
30.65	1024.0
30.66	1044.0
30.67	1052.0
30.68	1060.0
30.69	1049.0
30.7	1027.0
30.71	1048.0
30.72	1078.0
30.73	1081.0
30.74	1065.0
30.75	1049.0
30.76	1048.0
30.77	1093.0
30.78	1086.0
30.79	1061.0
30.8	1042.0
30.81	1054.0
30.82	1070.0
30.83	1092.0
30.84	1089.0
30.85	1075.0
30.86	1070.0
30.87	1067.0
30.88	1062.0
30.89	1056.0
30.9	1048.0
30.91	1033.0
30.92	983.0
30.93	1038.0
30.94	1116.0
30.95	1100.0
30.96	1036.0
30.97	1063.0
30.98	1096.0
30.99	1067.0
31.0	1035.0
31.01	1077.0
31.02	1071.0
31.03	1054.0
31.04	1047.0
31.05	1040.0
31.06	1022.0
31.07	1012.0
31.08	1080.0
31.09	1012.0
31.1	1042.0
31.11	1052.0
31.12	1066.0
31.13	1036.0
31.14	1047.0
31.15	1068.0
31.16	1083.0
31.17	1100.0
31.18	1059.0
31.19	1059.0
31.2	1063.0
31.21	1033.0
31.22	1055.0
31.23	1076.0
31.24	1061.0
31.25	1028.0
31.26	1020.0
31.27	1030.0
31.28	1040.0
31.29	1039.0
31.3	998.0
31.31	1001.0
31.32	1043.0
31.33	1029.0
31.34	1044.0
31.35	1031.0
31.36	1064.0
31.37	1056.0
31.38	1069.0
31.39	1055.0
31.4	1025.0
31.41	1024.0
31.42	1022.0
31.43	1029.0
31.44	1060.0
31.45	1044.0
31.46	1020.0
31.47	1062.0
31.48	1000.0
31.49	997.0
31.5	1038.0
31.51	1035.0
31.52	1053.0
31.53	1019.0
31.54	1020.0
31.55	1023.0
31.56	1005.0
31.57	1019.0
31.58	1013.0
31.59	1017.0
31.6	1007.0
31.61	979.0
31.62	1039.0
31.63	1070.0
31.64	1028.0
31.65	1064.0
31.66	1018.0
31.67	1025.0
31.68	1011.0
31.69	983.0
31.7	1000.0
31.71	1042.0
31.72	1008.0
31.73	1001.0
31.74	1024.0
31.75	1011.0
31.76	1028.0
31.77	1036.0
31.78	997.0
31.79	1021.0
31.8	1042.0
31.81	1052.0
31.82	1039.0
31.83	1040.0
31.84	975.0
31.85	965.0
31.86	993.0
31.87	1027.0
31.88	1037.0
31.89	1016.0
31.9	994.0
31.91	1019.0
31.92	1002.0
31.93	1013.0
31.94	1033.0
31.95	1035.0
31.96	1013.0
31.97	1001.0
31.98	1056.0
31.99	1085.0
32.0	1027.0
32.01	1017.0
32.02	1007.0
32.03	1002.0
32.04	1001.0
32.05	1000.0
32.06	1010.0
32.07	987.0
32.08	1004.0
32.09	1007.0
32.1	1002.0
32.11	1007.0
32.12	1015.0
32.13	991.0
32.14	985.0
32.15	976.0
32.16	1033.0
32.17	1056.0
32.18	1061.0
32.19	1032.0
32.2	1063.0
32.21	1068.0
32.22	1030.0
32.23	1016.0
32.24	1005.0
32.25	1000.0
32.26	993.0
32.27	1000.0
32.28	1013.0
32.29	1013.0
32.3	1050.0
32.31	1033.0
32.32	1017.0
32.33	973.0
32.34	1018.0
32.35	986.0
32.36	1030.0
32.37	982.0
32.38	1009.0
32.39	1042.0
32.4	999.0
32.41	990.0
32.42	995.0
32.43	1000.0
32.44	1033.0
32.45	1030.0
32.46	1024.0
32.47	1031.0
32.48	1010.0
32.49	1007.0
32.5	1024.0
32.51	1010.0
32.52	1011.0
32.53	1016.0
32.54	1051.0
32.55	1057.0
32.56	999.0
32.57	1052.0
32.58	1021.0
32.59	1014.0
32.6	1036.0
32.61	997.0
32.62	1020.0
32.63	1017.0
32.64	1055.0
32.65	996.0
32.66	994.0
32.67	1028.0
32.68	989.0
32.69	960.0
32.7	983.0
32.71	1007.0
32.72	1018.0
32.73	1015.0
32.74	1021.0
32.75	969.0
32.76	997.0
32.77	976.0
32.78	1001.0
32.79	969.0
32.8	962.0
32.81	986.0
32.82	993.0
32.83	1019.0
32.84	980.0
32.85	969.0
32.86	962.0
32.87	959.0
32.88	944.0
32.89	981.0
32.9	998.0
32.91	984.0
32.92	1024.0
32.93	1025.0
32.94	1019.0
32.95	1015.0
32.96	1008.0
32.97	978.0
32.98	997.0
32.99	1009.0
33.0	998.0
33.01	986.0
33.02	1001.0
33.03	935.0
33.04	944.0
33.05	981.0
33.06	970.0
33.07	1006.0
33.08	999.0
33.09	981.0
33.1	968.0
33.11	971.0
33.12	959.0
33.13	952.0
33.14	953.0
33.15	945.0
33.16	980.0
33.17	1014.0
33.18	982.0
33.19	940.0
33.2	945.0
33.21	999.0
33.22	1001.0
33.23	961.0
33.24	942.0
33.25	968.0
33.26	981.0
33.27	998.0
33.28	976.0
33.29	962.0
33.3	972.0
33.31	978.0
33.32	980.0
33.33	1012.0
33.34	1030.0
33.35	993.0
33.36	963.0
33.37	977.0
33.38	971.0
33.39	977.0
33.4	1002.0
33.41	976.0
33.42	953.0
33.43	970.0
33.44	990.0
33.45	968.0
33.46	977.0
33.47	988.0
33.48	986.0
33.49	958.0
33.5	971.0
33.51	976.0
33.52	999.0
33.53	1005.0
33.54	978.0
33.55	972.0
33.56	963.0
33.57	946.0
33.58	924.0
33.59	957.0
33.6	987.0
33.61	964.0
33.62	973.0
33.63	991.0
33.64	1018.0
33.65	983.0
33.66	994.0
33.67	973.0
33.68	945.0
33.69	953.0
33.7	966.0
33.71	981.0
33.72	946.0
33.73	915.0
33.74	929.0
33.75	955.0
33.76	966.0
33.77	961.0
33.78	957.0
33.79	973.0
33.8	969.0
33.81	954.0
33.82	970.0
33.83	1004.0
33.84	1007.0
33.85	975.0
33.86	993.0
33.87	1023.0
33.88	1018.0
33.89	1005.0
33.9	990.0
33.91	944.0
33.92	940.0
33.93	949.0
33.94	964.0
33.95	972.0
33.96	966.0
33.97	939.0
33.98	941.0
33.99	930.0
34.0	945.0
34.01	957.0
34.02	942.0
34.03	948.0
34.04	964.0
34.05	915.0
34.06	934.0
34.07	971.0
34.08	998.0
34.09	988.0
34.1	971.0
34.11	966.0
34.12	966.0
34.13	957.0
34.14	976.0
34.15	974.0
34.16	955.0
34.17	982.0
34.18	989.0
34.19	964.0
34.2	946.0
34.21	961.0
34.22	968.0
34.23	975.0
34.24	968.0
34.25	986.0
34.26	973.0
34.27	959.0
34.28	958.0
34.29	974.0
34.3	981.0
34.31	1007.0
34.32	1031.0
34.33	1019.0
34.34	1020.0
34.35	1010.0
34.36	998.0
34.37	971.0
34.38	981.0
34.39	1014.0
34.4	1007.0
34.41	1003.0
34.42	1005.0
34.43	1016.0
34.44	1011.0
34.45	987.0
34.46	1012.0
34.47	992.0
34.48	955.0
34.49	956.0
34.5	953.0
34.51	1009.0
34.52	993.0
34.53	969.0
34.54	993.0
34.55	1008.0
34.56	968.0
34.57	992.0
34.58	1034.0
34.59	991.0
34.6	990.0
34.61	1030.0
34.62	1015.0
34.63	1000.0
34.64	991.0
34.65	1008.0
34.66	1001.0
34.67	1029.0
34.68	1010.0
34.69	1007.0
34.7	1040.0
34.71	1017.0
34.72	1012.0
34.73	1012.0
34.74	1021.0
34.75	1002.0
34.76	972.0
34.77	984.0
34.78	993.0
34.79	1020.0
34.8	1044.0
34.81	1032.0
34.82	1005.0
34.83	995.0
34.84	990.0
34.85	994.0
34.86	1013.0
34.87	1036.0
34.88	1030.0
34.89	1038.0
34.9	1025.0
34.91	1015.0
34.92	1003.0
34.93	977.0
34.94	996.0
34.95	1027.0
34.96	1065.0
34.97	1050.0
34.98	1030.0
34.99	1027.0
35.0	1058.0
35.01	1073.0
35.02	1091.0
35.03	1104.0
35.04	1089.0
35.05	1077.0
35.06	1093.0
35.07	1123.0
35.08	1133.0
35.09	1135.0
35.1	1108.0
35.11	1148.0
35.12	1175.0
35.13	1179.0
35.14	1180.0
35.15	1210.0
35.16	1224.0
35.17	1177.0
35.18	1165.0
35.19	1176.0
35.2	1211.0
35.21	1265.0
35.22	1293.0
35.23	1352.0
35.24	1358.0
35.25	1355.0
35.26	1373.0
35.27	1396.0
35.28	1409.0
35.29	1435.0
35.3	1506.0
35.31	1554.0
35.32	1577.0
35.33	1656.0
35.34	1771.0
35.35	1820.0
35.36	1900.0
35.37	2049.0
35.38	2179.0
35.39	2339.0
35.4	2554.0
35.41	2850.0
35.42	3237.0
35.43	3647.0
35.44	4068.0
35.45	4608.0
35.46	5252.0
35.47	5967.0
35.48	6771.0
35.49	7625.0
35.5	8321.0
35.51	8908.0
35.52	9455.0
35.53	9684.0
35.54	9628.0
35.55	9486.0
35.56	9180.0
35.57	8786.0
35.58	8423.0
35.59	8067.0
35.6	7722.0
35.61	7351.0
35.62	6914.0
35.63	6470.0
35.64	6003.0
35.65	5449.0
35.66	4952.0
35.67	4515.0
35.68	4025.0
35.69	3602.0
35.7	3305.0
35.71	3045.0
35.72	2799.0
35.73	2593.0
35.74	2418.0
35.75	2263.0
35.76	2133.0
35.77	2020.0
35.78	1948.0
35.79	1900.0
35.8	1822.0
35.81	1731.0
35.82	1640.0
35.83	1590.0
35.84	1556.0
35.85	1515.0
35.86	1501.0
35.87	1480.0
35.88	1445.0
35.89	1409.0
35.9	1381.0
35.91	1333.0
35.92	1292.0
35.93	1271.0
35.94	1238.0
35.95	1244.0
35.96	1271.0
35.97	1261.0
35.98	1241.0
35.99	1207.0
36.0	1177.0
36.01	1167.0
36.02	1142.0
36.03	1122.0
36.04	1117.0
36.05	1106.0
36.06	1083.0
36.07	1087.0
36.08	1115.0
36.09	1103.0
36.1	1094.0
36.11	1085.0
36.12	1066.0
36.13	1061.0
36.14	1055.0
36.15	1071.0
36.16	1073.0
36.17	1050.0
36.18	1028.0
36.19	1007.0
36.2	998.0
36.21	1010.0
36.22	1023.0
36.23	1027.0
36.24	1020.0
36.25	1029.0
36.26	1031.0
36.27	1014.0
36.28	1007.0
36.29	1003.0
36.3	1004.0
36.31	1008.0
36.32	1002.0
36.33	971.0
36.34	960.0
36.35	987.0
36.36	1003.0
36.37	990.0
36.38	984.0
36.39	1009.0
36.4	1012.0
36.41	985.0
36.42	971.0
36.43	976.0
36.44	981.0
36.45	982.0
36.46	976.0
36.47	962.0
36.48	956.0
36.49	967.0
36.5	964.0
36.51	949.0
36.52	964.0
36.53	985.0
36.54	979.0
36.55	970.0
36.56	983.0
36.57	995.0
36.58	989.0
36.59	999.0
36.6	978.0
36.61	952.0
36.62	968.0
36.63	982.0
36.64	973.0
36.65	953.0
36.66	955.0
36.67	940.0
36.68	919.0
36.69	910.0
36.7	900.0
36.71	907.0
36.72	926.0
36.73	925.0
36.74	934.0
36.75	941.0
36.76	924.0
36.77	917.0
36.78	929.0
36.79	955.0
36.8	978.0
36.81	953.0
36.82	927.0
36.83	932.0
36.84	936.0
36.85	947.0
36.86	951.0
36.87	932.0
36.88	921.0
36.89	924.0
36.9	931.0
36.91	922.0
36.92	924.0
36.93	940.0
36.94	939.0
36.95	929.0
36.96	926.0
36.97	921.0
36.98	921.0
36.99	939.0
37.0	972.0
37.01	951.0
37.02	906.0
37.03	915.0
37.04	948.0
37.05	990.0
37.06	1000.0
37.07	1013.0
37.08	1061.0
37.09	1095.0
37.1	1130.0
37.11	1147.0
37.12	1166.0
37.13	1209.0
37.14	1257.0
37.15	1309.0
37.16	1333.0
37.17	1328.0
37.18	1346.0
37.19	1370.0
37.2	1355.0
37.21	1315.0
37.22	1279.0
37.23	1255.0
37.24	1237.0
37.25	1232.0
37.26	1222.0
37.27	1213.0
37.28	1180.0
37.29	1135.0
37.3	1095.0
37.31	1084.0
37.32	1058.0
37.33	1022.0
37.34	1028.0
37.35	1034.0
37.36	1014.0
37.37	991.0
37.38	965.0
37.39	958.0
37.4	978.0
37.41	978.0
37.42	956.0
37.43	938.0
37.44	920.0
37.45	925.0
37.46	938.0
37.47	934.0
37.48	926.0
37.49	905.0
37.5	899.0
37.51	913.0
37.52	903.0
37.53	889.0
37.54	891.0
37.55	885.0
37.56	892.0
37.57	900.0
37.58	893.0
37.59	898.0
37.6	891.0
37.61	891.0
37.62	906.0
37.63	887.0
37.64	887.0
37.65	888.0
37.66	880.0
37.67	885.0
37.68	880.0
37.69	883.0
37.7	878.0
37.71	863.0
37.72	880.0
37.73	900.0
37.74	908.0
37.75	899.0
37.76	900.0
37.77	935.0
37.78	929.0
37.79	920.0
37.8	910.0
37.81	905.0
37.82	907.0
37.83	902.0
37.84	878.0
37.85	878.0
37.86	899.0
37.87	899.0
37.88	872.0
37.89	869.0
37.9	853.0
37.91	842.0
37.92	873.0
37.93	889.0
37.94	907.0
37.95	919.0
37.96	903.0
37.97	894.0
37.98	877.0
37.99	887.0
38.0	882.0
38.01	880.0
38.02	875.0
38.03	861.0
38.04	872.0
38.05	867.0
38.06	853.0
38.07	862.0
38.08	853.0
38.09	863.0
38.1	859.0
38.11	843.0
38.12	860.0
38.13	863.0
38.14	877.0
38.15	908.0
38.16	916.0
38.17	904.0
38.18	875.0
38.19	858.0
38.2	881.0
38.21	870.0
38.22	843.0
38.23	842.0
38.24	845.0
38.25	869.0
38.26	895.0
38.27	893.0
38.28	868.0
38.29	853.0
38.3	859.0
38.31	851.0
38.32	872.0
38.33	863.0
38.34	868.0
38.35	860.0
38.36	858.0
38.37	880.0
38.38	861.0
38.39	862.0
38.4	877.0
38.41	878.0
38.42	868.0
38.43	856.0
38.44	831.0
38.45	820.0
38.46	820.0
38.47	852.0
38.48	866.0
38.49	861.0
38.5	858.0
38.51	860.0
38.52	858.0
38.53	877.0
38.54	881.0
38.55	859.0
38.56	857.0
38.57	858.0
38.58	844.0
38.59	861.0
38.6	885.0
38.61	892.0
38.62	878.0
38.63	872.0
38.64	866.0
38.65	840.0
38.66	838.0
38.67	860.0
38.68	896.0
38.69	901.0
38.7	884.0
38.71	877.0
38.72	864.0
38.73	861.0
38.74	876.0
38.75	885.0
38.76	865.0
38.77	866.0
38.78	871.0
38.79	882.0
38.8	833.0
38.81	831.0
38.82	844.0
38.83	869.0
38.84	877.0
38.85	865.0
38.86	876.0
38.87	877.0
38.88	872.0
38.89	904.0
38.9	903.0
38.91	859.0
38.92	848.0
38.93	851.0
38.94	862.0
38.95	859.0
38.96	854.0
38.97	851.0
38.98	863.0
38.99	858.0
39.0	865.0
39.01	874.0
39.02	875.0
39.03	875.0
39.04	858.0
39.05	860.0
39.06	867.0
39.07	834.0
39.08	840.0
39.09	868.0
39.1	872.0
39.11	837.0
39.12	842.0
39.13	838.0
39.14	861.0
39.15	873.0
39.16	851.0
39.17	843.0
39.18	839.0
39.19	867.0
39.2	889.0
39.21	839.0
39.22	823.0
39.23	849.0
39.24	847.0
39.25	862.0
39.26	868.0
39.27	853.0
39.28	886.0
39.29	881.0
39.3	843.0
39.31	841.0
39.32	855.0
39.33	831.0
39.34	865.0
39.35	860.0
39.36	868.0
39.37	854.0
39.38	873.0
39.39	846.0
39.4	857.0
39.41	878.0
39.42	891.0
39.43	869.0
39.44	854.0
39.45	867.0
39.46	872.0
39.47	869.0
39.48	846.0
39.49	837.0
39.5	849.0
39.51	846.0
39.52	848.0
39.53	850.0
39.54	839.0
39.55	877.0
39.56	891.0
39.57	875.0
39.58	864.0
39.59	835.0
39.6	841.0
39.61	846.0
39.62	816.0
39.63	833.0
39.64	838.0
39.65	837.0
39.66	857.0
39.67	868.0
39.68	881.0
39.69	858.0
39.7	823.0
39.71	836.0
39.72	842.0
39.73	822.0
39.74	821.0
39.75	859.0
39.76	863.0
39.77	862.0
39.78	849.0
39.79	848.0
39.8	818.0
39.81	842.0
39.82	872.0
39.83	812.0
39.84	838.0
39.85	864.0
39.86	845.0
39.87	823.0
39.88	838.0
39.89	868.0
39.9	872.0
39.91	853.0
39.92	848.0
39.93	849.0
39.94	837.0
39.95	875.0
39.96	858.0
39.97	818.0
39.98	820.0
39.99	833.0
40.0	831.0
40.01	816.0
40.02	833.0
40.03	826.0
40.04	847.0
40.05	843.0
40.06	855.0
40.07	873.0
40.08	859.0
40.09	859.0
40.1	882.0
40.11	886.0
40.12	870.0
40.13	852.0
40.14	817.0
40.15	825.0
40.16	860.0
40.17	853.0
40.18	848.0
40.19	839.0
40.2	844.0
40.21	849.0
40.22	844.0
40.23	891.0
40.24	835.0
40.25	832.0
40.26	803.0
40.27	817.0
40.28	815.0
40.29	823.0
40.3	817.0
40.31	812.0
40.32	848.0
40.33	859.0
40.34	867.0
40.35	845.0
40.36	829.0
40.37	837.0
40.38	852.0
40.39	843.0
40.4	823.0
40.41	853.0
40.42	880.0
40.43	845.0
40.44	857.0
40.45	821.0
40.46	830.0
40.47	832.0
40.48	828.0
40.49	853.0
40.5	842.0
40.51	821.0
40.52	831.0
40.53	850.0
40.54	834.0
40.55	830.0
40.56	831.0
40.57	854.0
40.58	853.0
40.59	820.0
40.6	801.0
40.61	822.0
40.62	832.0
40.63	798.0
40.64	833.0
40.65	854.0
40.66	812.0
40.67	821.0
40.68	836.0
40.69	810.0
40.7	811.0
40.71	828.0
40.72	818.0
40.73	832.0
40.74	861.0
40.75	866.0
40.76	830.0
40.77	845.0
40.78	854.0
40.79	805.0
40.8	805.0
40.81	833.0
40.82	825.0
40.83	830.0
40.84	799.0
40.85	812.0
40.86	835.0
40.87	865.0
40.88	852.0
40.89	849.0
40.9	822.0
40.91	844.0
40.92	869.0
40.93	865.0
40.94	826.0
40.95	799.0
40.96	816.0
40.97	832.0
40.98	839.0
40.99	846.0
41.0	857.0
41.01	839.0
41.02	812.0
41.03	824.0
41.04	823.0
41.05	849.0
41.06	821.0
41.07	823.0
41.08	842.0
41.09	853.0
41.1	818.0
41.11	789.0
41.12	816.0
41.13	833.0
41.14	825.0
41.15	827.0
41.16	815.0
41.17	805.0
41.18	803.0
41.19	804.0
41.2	816.0
41.21	837.0
41.22	822.0
41.23	776.0
41.24	844.0
41.25	853.0
41.26	795.0
41.27	781.0
41.28	834.0
41.29	839.0
41.3	812.0
41.31	805.0
41.32	827.0
41.33	814.0
41.34	790.0
41.35	827.0
41.36	849.0
41.37	818.0
41.38	815.0
41.39	842.0
41.4	850.0
41.41	836.0
41.42	796.0
41.43	837.0
41.44	813.0
41.45	815.0
41.46	828.0
41.47	814.0
41.48	875.0
41.49	813.0
41.5	815.0
41.51	809.0
41.52	793.0
41.53	786.0
41.54	790.0
41.55	822.0
41.56	841.0
41.57	809.0
41.58	831.0
41.59	836.0
41.6	828.0
41.61	849.0
41.62	817.0
41.63	858.0
41.64	885.0
41.65	866.0
41.66	836.0
41.67	852.0
41.68	873.0
41.69	830.0
41.7	812.0
41.71	843.0
41.72	844.0
41.73	844.0
41.74	864.0
41.75	892.0
41.76	857.0
41.77	856.0
41.78	834.0
41.79	851.0
41.8	852.0
41.81	835.0
41.82	840.0
41.83	892.0
41.84	863.0
41.85	888.0
41.86	908.0
41.87	879.0
41.88	871.0
41.89	856.0
41.9	891.0
41.91	859.0
41.92	862.0
41.93	857.0
41.94	843.0
41.95	849.0
41.96	847.0
41.97	820.0
41.98	818.0
41.99	838.0
42.0	844.0
42.01	887.0
42.02	888.0
42.03	877.0
42.04	883.0
42.05	872.0
42.06	868.0
42.07	855.0
42.08	848.0
42.09	844.0
42.1	869.0
42.11	831.0
42.12	856.0
42.13	847.0
42.14	838.0
42.15	876.0
42.16	866.0
42.17	837.0
42.18	832.0
42.19	852.0
42.2	860.0
42.21	844.0
42.22	878.0
42.23	911.0
42.24	918.0
42.25	873.0
42.26	877.0
42.27	858.0
42.28	857.0
42.29	851.0
42.3	879.0
42.31	843.0
42.32	861.0
42.33	851.0
42.34	886.0
42.35	882.0
42.36	883.0
42.37	927.0
42.38	880.0
42.39	867.0
42.4	892.0
42.41	868.0
42.42	862.0
42.43	908.0
42.44	915.0
42.45	881.0
42.46	904.0
42.47	923.0
42.48	900.0
42.49	886.0
42.5	905.0
42.51	885.0
42.52	877.0
42.53	858.0
42.54	926.0
42.55	918.0
42.56	864.0
42.57	901.0
42.58	928.0
42.59	924.0
42.6	920.0
42.61	911.0
42.62	939.0
42.63	943.0
42.64	934.0
42.65	925.0
42.66	936.0
42.67	944.0
42.68	937.0
42.69	978.0
42.7	987.0
42.71	965.0
42.72	938.0
42.73	925.0
42.74	983.0
42.75	1010.0
42.76	1046.0
42.77	1041.0
42.78	1067.0
42.79	1046.0
42.8	1066.0
42.81	1079.0
42.82	1105.0
42.83	1107.0
42.84	1122.0
42.85	1112.0
42.86	1114.0
42.87	1169.0
42.88	1207.0
42.89	1217.0
42.9	1221.0
42.91	1201.0
42.92	1201.0
42.93	1268.0
42.94	1343.0
42.95	1376.0
42.96	1406.0
42.97	1488.0
42.98	1531.0
42.99	1553.0
43.0	1579.0
43.01	1680.0
43.02	1763.0
43.03	1918.0
43.04	2150.0
43.05	2288.0
43.06	2493.0
43.07	2657.0
43.08	2968.0
43.09	3441.0
43.1	3888.0
43.11	4383.0
43.12	4952.0
43.13	5469.0
43.14	5993.0
43.15	6538.0
43.16	6827.0
43.17	7028.0
43.18	7056.0
43.19	7040.0
43.2	6779.0
43.21	6548.0
43.22	6320.0
43.23	6144.0
43.24	5988.0
43.25	5890.0
43.26	5727.0
43.27	5549.0
43.28	5424.0
43.29	5147.0
43.3	4935.0
43.31	4611.0
43.32	4386.0
43.33	4087.0
43.34	3668.0
43.35	3353.0
43.36	3164.0
43.37	2921.0
43.38	2715.0
43.39	2541.0
43.4	2352.0
43.41	2208.0
43.42	2146.0
43.43	2052.0
43.44	1920.0
43.45	1885.0
43.46	1814.0
43.47	1760.0
43.48	1659.0
43.49	1599.0
43.5	1574.0
43.51	1558.0
43.52	1501.0
43.53	1430.0
43.54	1404.0
43.55	1429.0
43.56	1395.0
43.57	1366.0
43.58	1336.0
43.59	1307.0
43.6	1277.0
43.61	1278.0
43.62	1270.0
43.63	1233.0
43.64	1240.0
43.65	1221.0
43.66	1152.0
43.67	1136.0
43.68	1177.0
43.69	1128.0
43.7	1120.0
43.71	1123.0
43.72	1112.0
43.73	1114.0
43.74	1118.0
43.75	1115.0
43.76	1073.0
43.77	1060.0
43.78	1076.0
43.79	1093.0
43.8	1046.0
43.81	1052.0
43.82	1070.0
43.83	1082.0
43.84	1052.0
43.85	1052.0
43.86	1034.0
43.87	1021.0
43.88	1001.0
43.89	1037.0
43.9	1010.0
43.91	1016.0
43.92	1015.0
43.93	1018.0
43.94	1001.0
43.95	960.0
43.96	993.0
43.97	1019.0
43.98	963.0
43.99	991.0
44.0	967.0
44.01	954.0
44.02	935.0
44.03	938.0
44.04	932.0
44.05	922.0
44.06	928.0
44.07	914.0
44.08	914.0
44.09	959.0
44.1	945.0
44.11	925.0
44.12	925.0
44.13	897.0
44.14	879.0
44.15	858.0
44.16	866.0
44.17	850.0
44.18	860.0
44.19	890.0
44.2	894.0
44.21	858.0
44.22	834.0
44.23	863.0
44.24	841.0
44.25	852.0
44.26	845.0
44.27	851.0
44.28	846.0
44.29	837.0
44.3	828.0
44.31	854.0
44.32	872.0
44.33	862.0
44.34	833.0
44.35	843.0
44.36	860.0
44.37	834.0
44.38	835.0
44.39	852.0
44.4	820.0
44.41	847.0
44.42	845.0
44.43	836.0
44.44	832.0
44.45	823.0
44.46	813.0
44.47	845.0
44.48	845.0
44.49	833.0
44.5	811.0
44.51	815.0
44.52	837.0
44.53	846.0
44.54	846.0
44.55	861.0
44.56	848.0
44.57	825.0
44.58	810.0
44.59	810.0
44.6	842.0
44.61	864.0
44.62	832.0
44.63	829.0
44.64	826.0
44.65	835.0
44.66	841.0
44.67	832.0
44.68	828.0
44.69	813.0
44.7	817.0
44.71	830.0
44.72	833.0
44.73	849.0
44.74	830.0
44.75	823.0
44.76	830.0
44.77	827.0
44.78	783.0
44.79	790.0
44.8	823.0
44.81	827.0
44.82	835.0
44.83	820.0
44.84	832.0
44.85	849.0
44.86	852.0
44.87	800.0
44.88	833.0
44.89	811.0
44.9	811.0
44.91	838.0
44.92	819.0
44.93	787.0
44.94	819.0
44.95	850.0
44.96	833.0
44.97	847.0
44.98	836.0
44.99	808.0
45.0	815.0
45.01	835.0
45.02	830.0
45.03	783.0
45.04	796.0
45.05	816.0
45.06	813.0
45.07	808.0
45.08	826.0
45.09	796.0
45.1	812.0
45.11	829.0
45.12	869.0
45.13	859.0
45.14	824.0
45.15	823.0
45.16	824.0
45.17	809.0
45.18	787.0
45.19	799.0
45.2	842.0
45.21	831.0
45.22	815.0
45.23	824.0
45.24	816.0
45.25	816.0
45.26	803.0
45.27	794.0
45.28	808.0
45.29	815.0
45.3	784.0
45.31	794.0
45.32	814.0
45.33	826.0
45.34	808.0
45.35	792.0
45.36	794.0
45.37	820.0
45.38	804.0
45.39	804.0
45.4	799.0
45.41	790.0
45.42	794.0
45.43	831.0
45.44	835.0
45.45	792.0
45.46	773.0
45.47	800.0
45.48	813.0
45.49	805.0
45.5	808.0
45.51	832.0
45.52	849.0
45.53	824.0
45.54	768.0
45.55	772.0
45.56	816.0
45.57	861.0
45.58	830.0
45.59	835.0
45.6	828.0
45.61	816.0
45.62	810.0
45.63	834.0
45.64	851.0
45.65	832.0
45.66	810.0
45.67	812.0
45.68	827.0
45.69	810.0
45.7	790.0
45.71	792.0
45.72	811.0
45.73	827.0
45.74	800.0
45.75	808.0
45.76	821.0
45.77	813.0
45.78	810.0
45.79	799.0
45.8	803.0
45.81	804.0
45.82	805.0
45.83	805.0
45.84	826.0
45.85	832.0
45.86	824.0
45.87	840.0
45.88	856.0
45.89	831.0
45.9	829.0
45.91	835.0
45.92	837.0
45.93	847.0
45.94	817.0
45.95	834.0
45.96	840.0
45.97	802.0
45.98	795.0
45.99	791.0
46.0	796.0
46.01	816.0
46.02	811.0
46.03	789.0
46.04	817.0
46.05	816.0
46.06	801.0
46.07	807.0
46.08	825.0
46.09	810.0
46.1	793.0
46.11	828.0
46.12	808.0
46.13	788.0
46.14	829.0
46.15	810.0
46.16	804.0
46.17	793.0
46.18	815.0
46.19	839.0
46.2	834.0
46.21	806.0
46.22	809.0
46.23	827.0
46.24	814.0
46.25	815.0
46.26	796.0
46.27	789.0
46.28	785.0
46.29	777.0
46.3	768.0
46.31	780.0
46.32	804.0
46.33	812.0
46.34	816.0
46.35	799.0
46.36	797.0
46.37	784.0
46.38	767.0
46.39	786.0
46.4	802.0
46.41	811.0
46.42	818.0
46.43	814.0
46.44	817.0
46.45	804.0
46.46	781.0
46.47	785.0
46.48	807.0
46.49	819.0
46.5	806.0
46.51	806.0
46.52	812.0
46.53	819.0
46.54	803.0
46.55	788.0
46.56	805.0
46.57	787.0
46.58	783.0
46.59	789.0
46.6	800.0
46.61	827.0
46.62	835.0
46.63	824.0
46.64	794.0
46.65	783.0
46.66	790.0
46.67	789.0
46.68	795.0
46.69	816.0
46.7	830.0
46.71	832.0
46.72	807.0
46.73	804.0
46.74	790.0
46.75	782.0
46.76	807.0
46.77	839.0
46.78	820.0
46.79	800.0
46.8	804.0
46.81	813.0
46.82	802.0
46.83	796.0
46.84	801.0
46.85	787.0
46.86	798.0
46.87	800.0
46.88	793.0
46.89	819.0
46.9	824.0
46.91	801.0
46.92	787.0
46.93	797.0
46.94	829.0
46.95	830.0
46.96	806.0
46.97	789.0
46.98	787.0
46.99	813.0
47.0	812.0
47.01	828.0
47.02	828.0
47.03	783.0
47.04	805.0
47.05	835.0
47.06	824.0
47.07	810.0
47.08	827.0
47.09	825.0
47.1	835.0
47.11	825.0
47.12	816.0
47.13	853.0
47.14	852.0
47.15	853.0
47.16	900.0
47.17	923.0
47.18	951.0
47.19	963.0
47.2	971.0
47.21	1007.0
47.22	1021.0
47.23	1025.0
47.24	1079.0
47.25	1120.0
47.26	1099.0
47.27	1108.0
47.28	1140.0
47.29	1138.0
47.3	1095.0
47.31	1060.0
47.32	1073.0
47.33	1073.0
47.34	1051.0
47.35	1044.0
47.36	1070.0
47.37	1100.0
47.38	1116.0
47.39	1078.0
47.4	1047.0
47.41	1036.0
47.42	1043.0
47.43	1042.0
47.44	1010.0
47.45	989.0
47.46	956.0
47.47	935.0
47.48	911.0
47.49	895.0
47.5	886.0
47.51	885.0
47.52	891.0
47.53	885.0
47.54	890.0
47.55	904.0
47.56	900.0
47.57	873.0
47.58	823.0
47.59	819.0
47.6	818.0
47.61	834.0
47.62	829.0
47.63	803.0
47.64	788.0
47.65	790.0
47.66	831.0
47.67	856.0
47.68	849.0
47.69	852.0
47.7	846.0
47.71	848.0
47.72	860.0
47.73	851.0
47.74	825.0
47.75	799.0
47.76	812.0
47.77	840.0
47.78	832.0
47.79	806.0
47.8	794.0
47.81	809.0
47.82	811.0
47.83	807.0
47.84	793.0
47.85	789.0
47.86	806.0
47.87	815.0
47.88	827.0
47.89	824.0
47.9	818.0
47.91	814.0
47.92	799.0
47.93	803.0
47.94	824.0
47.95	817.0
47.96	787.0
47.97	794.0
47.98	807.0
47.99	811.0
48.0	803.0
48.01	790.0
48.02	761.0
48.03	772.0
48.04	790.0
48.05	779.0
48.06	790.0
48.07	780.0
48.08	793.0
48.09	825.0
48.1	808.0
48.11	804.0
48.12	817.0
48.13	799.0
48.14	778.0
48.15	795.0
48.16	824.0
48.17	830.0
48.18	818.0
48.19	796.0
48.2	789.0
48.21	806.0
48.22	816.0
48.23	827.0
48.24	815.0
48.25	806.0
48.26	798.0
48.27	816.0
48.28	799.0
48.29	787.0
48.3	806.0
48.31	791.0
48.32	750.0
48.33	747.0
48.34	768.0
48.35	783.0
48.36	777.0
48.37	776.0
48.38	775.0
48.39	775.0
48.4	789.0
48.41	786.0
48.42	800.0
48.43	799.0
48.44	787.0
48.45	805.0
48.46	820.0
48.47	816.0
48.48	818.0
48.49	798.0
48.5	795.0
48.51	810.0
48.52	813.0
48.53	816.0
48.54	814.0
48.55	804.0
48.56	796.0
48.57	788.0
48.58	792.0
48.59	812.0
48.6	803.0
48.61	789.0
48.62	800.0
48.63	787.0
48.64	760.0
48.65	765.0
48.66	780.0
48.67	780.0
48.68	783.0
48.69	813.0
48.7	830.0
48.71	829.0
48.72	815.0
48.73	806.0
48.74	789.0
48.75	789.0
48.76	806.0
48.77	811.0
48.78	797.0
48.79	793.0
48.8	789.0
48.81	771.0
48.82	786.0
48.83	828.0
48.84	804.0
48.85	780.0
48.86	799.0
48.87	806.0
48.88	792.0
48.89	792.0
48.9	826.0
48.91	820.0
48.92	801.0
48.93	816.0
48.94	828.0
48.95	817.0
48.96	801.0
48.97	798.0
48.98	804.0
48.99	801.0
49.0	798.0
49.01	817.0
49.02	812.0
49.03	797.0
49.04	792.0
49.05	779.0
49.06	789.0
49.07	803.0
49.08	802.0
49.09	799.0
49.1	787.0
49.11	807.0
49.12	789.0
49.13	756.0
49.14	789.0
49.15	817.0
49.16	814.0
49.17	799.0
49.18	795.0
49.19	809.0
49.2	797.0
49.21	788.0
49.22	796.0
49.23	809.0
49.24	808.0
49.25	797.0
49.26	792.0
49.27	788.0
49.28	781.0
49.29	777.0
49.3	790.0
49.31	808.0
49.32	806.0
49.33	804.0
49.34	788.0
49.35	742.0
49.36	741.0
49.37	810.0
49.38	821.0
49.39	778.0
49.4	774.0
49.41	801.0
49.42	820.0
49.43	807.0
49.44	776.0
49.45	765.0
49.46	777.0
49.47	780.0
49.48	770.0
49.49	781.0
49.5	792.0
49.51	797.0
49.52	810.0
49.53	797.0
49.54	799.0
49.55	795.0
49.56	783.0
49.57	791.0
49.58	782.0
49.59	791.0
49.6	807.0
49.61	805.0
49.62	802.0
49.63	815.0
49.64	824.0
49.65	833.0
49.66	849.0
49.67	851.0
49.68	832.0
49.69	806.0
49.7	800.0
49.71	818.0
49.72	805.0
49.73	780.0
49.74	803.0
49.75	799.0
49.76	809.0
49.77	827.0
49.78	819.0
49.79	829.0
49.8	829.0
49.81	827.0
49.82	825.0
49.83	793.0
49.84	782.0
49.85	789.0
49.86	796.0
49.87	812.0
49.88	814.0
49.89	803.0
49.9	794.0
49.91	807.0
49.92	825.0
49.93	809.0
49.94	797.0
49.95	813.0
49.96	799.0
49.97	789.0
49.98	782.0
49.99	801.0
50.0	811.0
50.01	806.0
50.02	806.0
50.03	818.0
50.04	825.0
50.05	819.0
50.06	824.0
50.07	806.0
50.08	786.0
50.09	775.0
50.1	765.0
50.11	762.0
50.12	777.0
50.13	785.0
50.14	784.0
50.15	791.0
50.16	779.0
50.17	780.0
50.18	806.0
50.19	815.0
50.2	796.0
50.21	777.0
50.22	785.0
50.23	814.0
50.24	829.0
50.25	824.0
50.26	809.0
50.27	782.0
50.28	777.0
50.29	786.0
50.3	781.0
50.31	763.0
50.32	770.0
50.33	806.0
50.34	820.0
50.35	797.0
50.36	803.0
50.37	831.0
50.38	816.0
50.39	802.0
50.4	804.0
50.41	795.0
50.42	782.0
50.43	786.0
50.44	783.0
50.45	767.0
50.46	775.0
50.47	786.0
50.48	773.0
50.49	758.0
50.5	778.0
50.51	783.0
50.52	756.0
50.53	761.0
50.54	780.0
50.55	779.0
50.56	791.0
50.57	824.0
50.58	824.0
50.59	798.0
50.6	780.0
50.61	766.0
50.62	768.0
50.63	778.0
50.64	792.0
50.65	789.0
50.66	772.0
50.67	764.0
50.68	780.0
50.69	797.0
50.7	793.0
50.71	779.0
50.72	778.0
50.73	791.0
50.74	783.0
50.75	777.0
50.76	783.0
50.77	790.0
50.78	788.0
50.79	780.0
50.8	786.0
50.81	810.0
50.82	816.0
50.83	786.0
50.84	774.0
50.85	761.0
50.86	758.0
50.87	778.0
50.88	780.0
50.89	787.0
50.9	798.0
50.91	803.0
50.92	788.0
50.93	773.0
50.94	775.0
50.95	773.0
50.96	770.0
50.97	786.0
50.98	812.0
50.99	829.0
51.0	813.0
51.01	777.0
51.02	749.0
51.03	759.0
51.04	799.0
51.05	808.0
51.06	785.0
51.07	774.0
51.08	769.0
51.09	785.0
51.1	811.0
51.11	796.0
51.12	765.0
51.13	747.0
51.14	748.0
51.15	759.0
51.16	787.0
51.17	819.0
51.18	818.0
51.19	791.0
51.2	785.0
51.21	797.0
51.22	789.0
51.23	767.0
51.24	753.0
51.25	767.0
51.26	778.0
51.27	764.0
51.28	771.0
51.29	799.0
51.3	790.0
51.31	774.0
51.32	762.0
51.33	770.0
51.34	795.0
51.35	802.0
51.36	802.0
51.37	780.0
51.38	764.0
51.39	778.0
51.4	784.0
51.41	777.0
51.42	765.0
51.43	758.0
51.44	758.0
51.45	767.0
51.46	768.0
51.47	770.0
51.48	778.0
51.49	787.0
51.5	798.0
51.51	798.0
51.52	797.0
51.53	786.0
51.54	760.0
51.55	757.0
51.56	766.0
51.57	767.0
51.58	749.0
51.59	741.0
51.6	745.0
51.61	749.0
51.62	758.0
51.63	767.0
51.64	771.0
51.65	780.0
51.66	790.0
51.67	780.0
51.68	756.0
51.69	766.0
51.7	787.0
51.71	780.0
51.72	775.0
51.73	791.0
51.74	812.0
51.75	802.0
51.76	778.0
51.77	772.0
51.78	773.0
51.79	777.0
51.8	779.0
51.81	773.0
51.82	780.0
51.83	789.0
51.84	768.0
51.85	770.0
51.86	784.0
51.87	764.0
51.88	752.0
51.89	748.0
51.9	760.0
51.91	780.0
51.92	797.0
51.93	800.0
51.94	781.0
51.95	768.0
51.96	775.0
51.97	774.0
51.98	769.0
51.99	788.0
52.0	790.0
52.01	779.0
52.02	776.0
52.03	767.0
52.04	768.0
52.05	763.0
52.06	750.0
52.07	757.0
52.08	780.0
52.09	799.0
52.1	800.0
52.11	776.0
52.12	752.0
52.13	766.0
52.14	796.0
52.15	813.0
52.16	798.0
52.17	779.0
52.18	777.0
52.19	770.0
52.2	757.0
52.21	755.0
52.22	771.0
52.23	780.0
52.24	795.0
52.25	789.0
52.26	769.0
52.27	777.0
52.28	756.0
52.29	736.0
52.3	743.0
52.31	758.0
52.32	773.0
52.33	788.0
52.34	773.0
52.35	738.0
52.36	744.0
52.37	768.0
52.38	769.0
52.39	766.0
52.4	759.0
52.41	746.0
52.42	744.0
52.43	770.0
52.44	778.0
52.45	794.0
52.46	824.0
52.47	815.0
52.48	798.0
52.49	781.0
52.5	789.0
52.51	817.0
52.52	793.0
52.53	778.0
52.54	796.0
52.55	789.0
52.56	783.0
52.57	800.0
52.58	799.0
52.59	783.0
52.6	798.0
52.61	799.0
52.62	757.0
52.63	745.0
52.64	770.0
52.65	779.0
52.66	771.0
52.67	784.0
52.68	779.0
52.69	770.0
52.7	774.0
52.71	775.0
52.72	776.0
52.73	768.0
52.74	775.0
52.75	772.0
52.76	795.0
52.77	818.0
52.78	800.0
52.79	774.0
52.8	786.0
52.81	788.0
52.82	775.0
52.83	761.0
52.84	763.0
52.85	773.0
52.86	773.0
52.87	783.0
52.88	794.0
52.89	793.0
52.9	783.0
52.91	777.0
52.92	786.0
52.93	801.0
52.94	815.0
52.95	791.0
52.96	779.0
52.97	784.0
52.98	774.0
52.99	779.0
53.0	779.0
53.01	767.0
53.02	763.0
53.03	764.0
53.04	760.0
53.05	781.0
53.06	803.0
53.07	788.0
53.08	775.0
53.09	773.0
53.1	775.0
53.11	779.0
53.12	794.0
53.13	798.0
53.14	787.0
53.15	798.0
53.16	790.0
53.17	772.0
53.18	785.0
53.19	801.0
53.2	805.0
53.21	830.0
53.22	824.0
53.23	803.0
53.24	796.0
53.25	807.0
53.26	813.0
53.27	822.0
53.28	822.0
53.29	815.0
53.3	797.0
53.31	783.0
53.32	783.0
53.33	783.0
53.34	797.0
53.35	791.0
53.36	797.0
53.37	815.0
53.38	807.0
53.39	808.0
53.4	818.0
53.41	836.0
53.42	832.0
53.43	825.0
53.44	852.0
53.45	880.0
53.46	902.0
53.47	945.0
53.48	984.0
53.49	1015.0
53.5	1035.0
53.51	1040.0
53.52	1060.0
53.53	1068.0
53.54	1081.0
53.55	1070.0
53.56	1086.0
53.57	1108.0
53.58	1100.0
53.59	1065.0
53.6	1012.0
53.61	982.0
53.62	975.0
53.63	985.0
53.64	978.0
53.65	980.0
53.66	1003.0
53.67	992.0
53.68	971.0
53.69	964.0
53.7	974.0
53.71	984.0
53.72	967.0
53.73	924.0
53.74	916.0
53.75	925.0
53.76	901.0
53.77	883.0
53.78	867.0
53.79	866.0
53.8	873.0
53.81	840.0
53.82	842.0
53.83	846.0
53.84	825.0
53.85	811.0
53.86	818.0
53.87	835.0
53.88	826.0
53.89	810.0
53.9	796.0
53.91	796.0
53.92	804.0
53.93	789.0
53.94	775.0
53.95	792.0
53.96	801.0
53.97	794.0
53.98	798.0
53.99	795.0
54.0	757.0
54.01	746.0
54.02	766.0
54.03	759.0
54.04	755.0
54.05	788.0
54.06	791.0
54.07	786.0
54.08	806.0
54.09	814.0
54.1	828.0
54.11	821.0
54.12	783.0
54.13	787.0
54.14	804.0
54.15	798.0
54.16	819.0
54.17	816.0
54.18	778.0
54.19	790.0
54.2	808.0
54.21	783.0
54.22	763.0
54.23	747.0
54.24	769.0
54.25	804.0
54.26	800.0
54.27	783.0
54.28	790.0
54.29	808.0
54.3	804.0
54.31	795.0
54.32	803.0
54.33	783.0
54.34	771.0
54.35	786.0
54.36	786.0
54.37	780.0
54.38	799.0
54.39	798.0
54.4	772.0
54.41	811.0
54.42	831.0
54.43	825.0
54.44	831.0
54.45	811.0
54.46	781.0
54.47	769.0
54.48	769.0
54.49	782.0
54.5	781.0
54.51	769.0
54.52	766.0
54.53	783.0
54.54	777.0
54.55	758.0
54.56	749.0
54.57	768.0
54.58	791.0
54.59	781.0
54.6	792.0
54.61	770.0
54.62	768.0
54.63	799.0
54.64	801.0
54.65	773.0
54.66	795.0
54.67	805.0
54.68	803.0
54.69	805.0
54.7	783.0
54.71	790.0
54.72	817.0
54.73	796.0
54.74	783.0
54.75	814.0
54.76	814.0
54.77	809.0
54.78	794.0
54.79	772.0
54.8	777.0
54.81	765.0
54.82	756.0
54.83	794.0
54.84	801.0
54.85	783.0
54.86	773.0
54.87	816.0
54.88	822.0
54.89	780.0
54.9	783.0
54.91	794.0
54.92	795.0
54.93	782.0
54.94	778.0
54.95	776.0
54.96	787.0
54.97	804.0
54.98	820.0
54.99	809.0
55.0	811.0
55.01	827.0
55.02	834.0
55.03	832.0
55.04	831.0
55.05	819.0
55.06	795.0
55.07	805.0
55.08	823.0
55.09	835.0
55.1	821.0
55.11	826.0
55.12	855.0
55.13	844.0
55.14	811.0
55.15	820.0
55.16	814.0
55.17	808.0
55.18	823.0
55.19	836.0
55.2	832.0
55.21	812.0
55.22	783.0
55.23	774.0
55.24	797.0
55.25	838.0
55.26	849.0
55.27	807.0
55.28	782.0
55.29	794.0
55.3	794.0
55.31	789.0
55.32	813.0
55.33	815.0
55.34	824.0
55.35	827.0
55.36	828.0
55.37	836.0
55.38	850.0
55.39	822.0
55.4	798.0
55.41	812.0
55.42	836.0
55.43	862.0
55.44	857.0
55.45	826.0
55.46	819.0
55.47	816.0
55.48	808.0
55.49	804.0
55.5	804.0
55.51	826.0
55.52	840.0
55.53	839.0
55.54	835.0
55.55	820.0
55.56	819.0
55.57	831.0
55.58	811.0
55.59	792.0
55.6	807.0
55.61	807.0
55.62	818.0
55.63	840.0
55.64	836.0
55.65	810.0
55.66	801.0
55.67	794.0
55.68	781.0
55.69	824.0
55.7	853.0
55.71	859.0
55.72	852.0
55.73	835.0
55.74	856.0
55.75	845.0
55.76	814.0
55.77	828.0
55.78	839.0
55.79	823.0
55.8	807.0
55.81	839.0
55.82	859.0
55.83	813.0
55.84	809.0
55.85	821.0
55.86	828.0
55.87	825.0
55.88	814.0
55.89	839.0
55.9	824.0
55.91	811.0
55.92	814.0
55.93	808.0
55.94	853.0
55.95	848.0
55.96	810.0
55.97	819.0
55.98	836.0
55.99	839.0
56.0	833.0
56.01	842.0
56.02	833.0
56.03	829.0
56.04	840.0
56.05	846.0
56.06	853.0
56.07	878.0
56.08	871.0
56.09	864.0
56.1	866.0
56.11	857.0
56.12	843.0
56.13	836.0
56.14	835.0
56.15	834.0
56.16	816.0
56.17	809.0
56.18	813.0
56.19	817.0
56.2	818.0
56.21	824.0
56.22	834.0
56.23	820.0
56.24	812.0
56.25	837.0
56.26	840.0
56.27	834.0
56.28	865.0
56.29	885.0
56.3	851.0
56.31	833.0
56.32	868.0
56.33	856.0
56.34	854.0
56.35	866.0
56.36	856.0
56.37	843.0
56.38	837.0
56.39	834.0
56.4	864.0
56.41	865.0
56.42	844.0
56.43	853.0
56.44	876.0
56.45	880.0
56.46	872.0
56.47	861.0
56.48	858.0
56.49	847.0
56.5	861.0
56.51	836.0
56.52	870.0
56.53	887.0
56.54	854.0
56.55	849.0
56.56	868.0
56.57	886.0
56.58	892.0
56.59	889.0
56.6	887.0
56.61	901.0
56.62	900.0
56.63	902.0
56.64	898.0
56.65	903.0
56.66	911.0
56.67	929.0
56.68	932.0
56.69	922.0
56.7	964.0
56.71	992.0
56.72	981.0
56.73	966.0
56.74	996.0
56.75	1022.0
56.76	1022.0
56.77	1029.0
56.78	1007.0
56.79	981.0
56.8	1005.0
56.81	1071.0
56.82	1080.0
56.83	1087.0
56.84	1115.0
56.85	1132.0
56.86	1131.0
56.87	1141.0
56.88	1158.0
56.89	1220.0
56.9	1299.0
56.91	1305.0
56.92	1349.0
56.93	1409.0
56.94	1496.0
56.95	1604.0
56.96	1705.0
56.97	1895.0
56.98	2129.0
56.99	2279.0
57.0	2490.0
57.01	2802.0
57.02	3139.0
57.03	3439.0
57.04	3685.0
57.05	3841.0
57.06	4065.0
57.07	4255.0
57.08	4276.0
57.09	4231.0
57.1	4224.0
57.11	4081.0
57.12	3875.0
57.13	3763.0
57.14	3649.0
57.15	3532.0
57.16	3462.0
57.17	3366.0
57.18	3326.0
57.19	3335.0
57.2	3316.0
57.21	3315.0
57.22	3385.0
57.23	3334.0
57.24	3234.0
57.25	3110.0
57.26	3005.0
57.27	2836.0
57.28	2604.0
57.29	2448.0
57.3	2320.0
57.31	2200.0
57.32	2059.0
57.33	1947.0
57.34	1909.0
57.35	1848.0
57.36	1727.0
57.37	1605.0
57.38	1572.0
57.39	1554.0
57.4	1534.0
57.41	1430.0
57.42	1406.0
57.43	1353.0
57.44	1302.0
57.45	1292.0
57.46	1263.0
57.47	1228.0
57.48	1219.0
57.49	1168.0
57.5	1164.0
57.51	1175.0
57.52	1163.0
57.53	1151.0
57.54	1145.0
57.55	1125.0
57.56	1103.0
57.57	1106.0
57.58	1077.0
57.59	1068.0
57.6	1047.0
57.61	1008.0
57.62	1002.0
57.63	988.0
57.64	949.0
57.65	948.0
57.66	976.0
57.67	991.0
57.68	987.0
57.69	968.0
57.7	946.0
57.71	964.0
57.72	970.0
57.73	971.0
57.74	954.0
57.75	967.0
57.76	978.0
57.77	962.0
57.78	949.0
57.79	930.0
57.8	900.0
57.81	878.0
57.82	887.0
57.83	932.0
57.84	932.0
57.85	923.0
57.86	904.0
57.87	891.0
57.88	892.0
57.89	893.0
57.9	875.0
57.91	877.0
57.92	897.0
57.93	903.0
57.94	898.0
57.95	883.0
57.96	878.0
57.97	895.0
57.98	921.0
57.99	902.0
58.0	877.0
58.01	870.0
58.02	856.0
58.03	860.0
58.04	860.0
58.05	833.0
58.06	819.0
58.07	833.0
58.08	817.0
58.09	822.0
58.1	855.0
58.11	855.0
58.12	863.0
58.13	890.0
58.14	878.0
58.15	869.0
58.16	839.0
58.17	829.0
58.18	873.0
58.19	836.0
58.2	827.0
58.21	822.0
58.22	819.0
58.23	826.0
58.24	829.0
58.25	834.0
58.26	837.0
58.27	844.0
58.28	826.0
58.29	809.0
58.3	828.0
58.31	839.0
58.32	821.0
58.33	793.0
58.34	821.0
58.35	839.0
58.36	837.0
58.37	824.0
58.38	836.0
58.39	837.0
58.4	860.0
58.41	878.0
58.42	827.0
58.43	789.0
58.44	784.0
58.45	787.0
58.46	837.0
58.47	856.0
58.48	842.0
58.49	805.0
58.5	798.0
58.51	825.0
58.52	818.0
58.53	790.0
58.54	789.0
58.55	812.0
58.56	820.0
58.57	808.0
58.58	804.0
58.59	817.0
58.6	792.0
58.61	803.0
58.62	819.0
58.63	834.0
58.64	845.0
58.65	835.0
58.66	834.0
58.67	853.0
58.68	858.0
58.69	832.0
58.7	836.0
58.71	812.0
58.72	817.0
58.73	828.0
58.74	821.0
58.75	815.0
58.76	816.0
58.77	825.0
58.78	818.0
58.79	816.0
58.8	815.0
58.81	788.0
58.82	774.0
58.83	806.0
58.84	810.0
58.85	841.0
58.86	844.0
58.87	827.0
58.88	849.0
58.89	843.0
58.9	836.0
58.91	821.0
58.92	841.0
58.93	836.0
58.94	822.0
58.95	836.0
58.96	852.0
58.97	846.0
58.98	824.0
58.99	828.0
59.0	833.0
59.01	836.0
59.02	831.0
59.03	811.0
59.04	831.0
59.05	841.0
59.06	863.0
59.07	843.0
59.08	843.0
59.09	837.0
59.1	824.0
59.11	824.0
59.12	832.0
59.13	846.0
59.14	822.0
59.15	818.0
59.16	834.0
59.17	829.0
59.18	822.0
59.19	819.0
59.2	828.0
59.21	839.0
59.22	847.0
59.23	850.0
59.24	836.0
59.25	839.0
59.26	867.0
59.27	852.0
59.28	802.0
59.29	799.0
59.3	834.0
59.31	821.0
59.32	791.0
59.33	787.0
59.34	788.0
59.35	826.0
59.36	835.0
59.37	824.0
59.38	803.0
59.39	824.0
59.4	839.0
59.41	846.0
59.42	855.0
59.43	822.0
59.44	812.0
59.45	801.0
59.46	821.0
59.47	820.0
59.48	829.0
59.49	828.0
59.5	838.0
59.51	817.0
59.52	832.0
59.53	808.0
59.54	773.0
59.55	781.0
59.56	805.0
59.57	836.0
59.58	831.0
59.59	811.0
59.6	784.0
59.61	803.0
59.62	825.0
59.63	801.0
59.64	785.0
59.65	802.0
59.66	807.0
59.67	824.0
59.68	841.0
59.69	843.0
59.7	821.0
59.71	810.0
59.72	844.0
59.73	861.0
59.74	837.0
59.75	817.0
59.76	797.0
59.77	824.0
59.78	826.0
59.79	805.0
59.8	799.0
59.81	831.0
59.82	880.0
59.83	839.0
59.84	813.0
59.85	828.0
59.86	835.0
59.87	798.0
59.88	797.0
59.89	829.0
59.9	816.0
59.91	833.0
59.92	824.0
59.93	820.0
59.94	827.0
59.95	847.0
59.96	848.0
59.97	869.0
59.98	822.0
59.99	806.0
60.0	808.0
60.01	789.0
60.02	821.0
60.03	838.0
60.04	828.0
60.05	807.0
60.06	807.0
60.07	798.0
60.08	800.0
60.09	829.0
60.1	807.0
60.11	812.0
60.12	825.0
60.13	815.0
60.14	799.0
60.15	821.0
60.16	844.0
60.17	807.0
60.18	827.0
60.19	825.0
60.2	832.0
60.21	842.0
60.22	836.0
60.23	836.0
60.24	844.0
60.25	865.0
60.26	855.0
60.27	829.0
60.28	789.0
60.29	804.0
60.3	829.0
60.31	817.0
60.32	850.0
60.33	843.0
60.34	869.0
60.35	893.0
60.36	869.0
60.37	854.0
60.38	856.0
60.39	852.0
60.4	832.0
60.41	854.0
60.42	847.0
60.43	813.0
60.44	832.0
60.45	818.0
60.46	803.0
60.47	843.0
60.48	865.0
60.49	844.0
60.5	838.0
60.51	859.0
60.52	838.0
60.53	836.0
60.54	839.0
60.55	855.0
60.56	863.0
60.57	820.0
60.58	837.0
60.59	871.0
60.6	854.0
60.61	808.0
60.62	823.0
60.63	825.0
60.64	827.0
60.65	851.0
60.66	832.0
60.67	830.0
60.68	867.0
60.69	848.0
60.7	812.0
60.71	830.0
60.72	844.0
60.73	861.0
60.74	879.0
60.75	848.0
60.76	838.0
60.77	863.0
60.78	872.0
60.79	854.0
60.8	858.0
60.81	862.0
60.82	834.0
60.83	796.0
60.84	822.0
60.85	825.0
60.86	827.0
60.87	845.0
60.88	843.0
60.89	832.0
60.9	844.0
60.91	840.0
60.92	861.0
60.93	871.0
60.94	880.0
60.95	878.0
60.96	855.0
60.97	843.0
60.98	839.0
60.99	838.0
61.0	847.0
61.01	854.0
61.02	843.0
61.03	819.0
61.04	788.0
61.05	815.0
61.06	847.0
61.07	824.0
61.08	836.0
61.09	830.0
61.1	824.0
61.11	846.0
61.12	842.0
61.13	821.0
61.14	824.0
61.15	808.0
61.16	833.0
61.17	879.0
61.18	846.0
61.19	854.0
61.2	825.0
61.21	837.0
61.22	847.0
61.23	852.0
61.24	894.0
61.25	863.0
61.26	826.0
61.27	812.0
61.28	825.0
61.29	835.0
61.3	856.0
61.31	857.0
61.32	819.0
61.33	810.0
61.34	811.0
61.35	832.0
61.36	842.0
61.37	824.0
61.38	840.0
61.39	843.0
61.4	801.0
61.41	828.0
61.42	865.0
61.43	879.0
61.44	827.0
61.45	864.0
61.46	814.0
61.47	826.0
61.48	822.0
61.49	815.0
61.5	819.0
61.51	836.0
61.52	842.0
61.53	854.0
61.54	867.0
61.55	843.0
61.56	828.0
61.57	853.0
61.58	853.0
61.59	841.0
61.6	834.0
61.61	885.0
61.62	841.0
61.63	798.0
61.64	793.0
61.65	830.0
61.66	874.0
61.67	881.0
61.68	855.0
61.69	829.0
61.7	846.0
61.71	849.0
61.72	858.0
61.73	861.0
61.74	868.0
61.75	863.0
61.76	843.0
61.77	838.0
61.78	834.0
61.79	827.0
61.8	818.0
61.81	828.0
61.82	843.0
61.83	818.0
61.84	865.0
61.85	891.0
61.86	873.0
61.87	881.0
61.88	868.0
61.89	882.0
61.9	885.0
61.91	881.0
61.92	891.0
61.93	899.0
61.94	878.0
61.95	858.0
61.96	868.0
61.97	843.0
61.98	826.0
61.99	878.0
62.0	919.0
62.01	934.0
62.02	916.0
62.03	861.0
62.04	881.0
62.05	896.0
62.06	919.0
62.07	897.0
62.08	875.0
62.09	876.0
62.1	929.0
62.11	910.0
62.12	911.0
62.13	932.0
62.14	946.0
62.15	948.0
62.16	919.0
62.17	908.0
62.18	919.0
62.19	948.0
62.2	980.0
62.21	983.0
62.22	994.0
62.23	985.0
62.24	990.0
62.25	995.0
62.26	986.0
62.27	998.0
62.28	1007.0
62.29	1044.0
62.3	1011.0
62.31	1041.0
62.32	1046.0
62.33	1065.0
62.34	1132.0
62.35	1128.0
62.36	1141.0
62.37	1168.0
62.38	1138.0
62.39	1156.0
62.4	1212.0
62.41	1167.0
62.42	1193.0
62.43	1243.0
62.44	1218.0
62.45	1240.0
62.46	1261.0
62.47	1330.0
62.48	1367.0
62.49	1433.0
62.5	1493.0
62.51	1538.0
62.52	1648.0
62.53	1743.0
62.54	1882.0
62.55	2109.0
62.56	2356.0
62.57	2603.0
62.58	2852.0
62.59	3178.0
62.6	3609.0
62.61	4040.0
62.62	4468.0
62.63	4880.0
62.64	5377.0
62.65	5594.0
62.66	5771.0
62.67	5972.0
62.68	5984.0
62.69	5823.0
62.7	5725.0
62.71	5538.0
62.72	5334.0
62.73	5052.0
62.74	4770.0
62.75	4510.0
62.76	4395.0
62.77	4427.0
62.78	4517.0
62.79	4462.0
62.8	4438.0
62.81	4448.0
62.82	4495.0
62.83	4567.0
62.84	4535.0
62.85	4366.0
62.86	4286.0
62.87	4184.0
62.88	3979.0
62.89	3736.0
62.9	3517.0
62.91	3374.0
62.92	3094.0
62.93	2875.0
62.94	2792.0
62.95	2642.0
62.96	2488.0
62.97	2327.0
62.98	2218.0
62.99	2134.0
63.0	2050.0
63.01	1973.0
63.02	1897.0
63.03	1800.0
63.04	1719.0
63.05	1671.0
63.06	1664.0
63.07	1595.0
63.08	1563.0
63.09	1536.0
63.1	1513.0
63.11	1428.0
63.12	1365.0
63.13	1333.0
63.14	1400.0
63.15	1361.0
63.16	1354.0
63.17	1284.0
63.18	1287.0
63.19	1221.0
63.2	1201.0
63.21	1216.0
63.22	1210.0
63.23	1176.0
63.24	1136.0
63.25	1127.0
63.26	1119.0
63.27	1117.0
63.28	1116.0
63.29	1097.0
63.3	1094.0
63.31	1104.0
63.32	1100.0
63.33	1082.0
63.34	1050.0
63.35	1037.0
63.36	1024.0
63.37	1040.0
63.38	1012.0
63.39	1029.0
63.4	1041.0
63.41	1057.0
63.42	1023.0
63.43	987.0
63.44	955.0
63.45	976.0
63.46	997.0
63.47	983.0
63.48	958.0
63.49	942.0
63.5	926.0
63.51	929.0
63.52	934.0
63.53	925.0
63.54	979.0
63.55	972.0
63.56	930.0
63.57	913.0
63.58	941.0
63.59	971.0
63.6	946.0
63.61	896.0
63.62	915.0
63.63	935.0
63.64	941.0
63.65	958.0
63.66	948.0
63.67	891.0
63.68	908.0
63.69	912.0
63.7	894.0
63.71	935.0
63.72	887.0
63.73	908.0
63.74	909.0
63.75	868.0
63.76	873.0
63.77	897.0
63.78	859.0
63.79	857.0
63.8	864.0
63.81	888.0
63.82	870.0
63.83	845.0
63.84	859.0
63.85	873.0
63.86	855.0
63.87	837.0
63.88	806.0
63.89	845.0
63.9	892.0
63.91	889.0
63.92	886.0
63.93	884.0
63.94	872.0
63.95	875.0
63.96	851.0
63.97	872.0
63.98	883.0
63.99	884.0
64.0	886.0
64.01	851.0
64.02	890.0
64.03	837.0
64.04	842.0
64.05	882.0
64.06	872.0
64.07	861.0
64.08	860.0
64.09	853.0
64.1	885.0
64.11	874.0
64.12	846.0
64.13	888.0
64.14	854.0
64.15	857.0
64.16	848.0
64.17	853.0
64.18	860.0
64.19	859.0
64.2	827.0
64.21	837.0
64.22	843.0
64.23	835.0
64.24	848.0
64.25	864.0
64.26	862.0
64.27	843.0
64.28	857.0
64.29	846.0
64.3	863.0
64.31	843.0
64.32	848.0
64.33	854.0
64.34	842.0
64.35	822.0
64.36	820.0
64.37	777.0
64.38	779.0
64.39	803.0
64.4	835.0
64.41	826.0
64.42	796.0
64.43	846.0
64.44	825.0
64.45	793.0
64.46	822.0
64.47	826.0
64.48	808.0
64.49	814.0
64.5	815.0
64.51	848.0
64.52	835.0
64.53	814.0
64.54	822.0
64.55	842.0
64.56	851.0
64.57	831.0
64.58	799.0
64.59	787.0
64.6	791.0
64.61	807.0
64.62	786.0
64.63	807.0
64.64	786.0
64.65	812.0
64.66	781.0
64.67	798.0
64.68	821.0
64.69	833.0
64.7	817.0
64.71	836.0
64.72	827.0
64.73	782.0
64.74	793.0
64.75	804.0
64.76	788.0
64.77	775.0
64.78	842.0
64.79	847.0
64.8	815.0
64.81	811.0
64.82	818.0
64.83	782.0
64.84	807.0
64.85	841.0
64.86	843.0
64.87	820.0
64.88	801.0
64.89	800.0
64.9	783.0
64.91	793.0
64.92	818.0
64.93	833.0
64.94	827.0
64.95	809.0
64.96	817.0
64.97	802.0
64.98	793.0
64.99	807.0
65.0	788.0
65.01	798.0
65.02	791.0
65.03	814.0
65.04	806.0
65.05	824.0
65.06	814.0
65.07	794.0
65.08	754.0
65.09	791.0
65.1	822.0
65.11	829.0
65.12	838.0
65.13	828.0
65.14	810.0
65.15	803.0
65.16	831.0
65.17	789.0
65.18	779.0
65.19	785.0
65.2	822.0
65.21	822.0
65.22	793.0
65.23	796.0
65.24	806.0
65.25	801.0
65.26	791.0
65.27	790.0
65.28	822.0
65.29	844.0
65.3	818.0
65.31	816.0
65.32	821.0
65.33	851.0
65.34	840.0
65.35	840.0
65.36	845.0
65.37	813.0
65.38	797.0
65.39	776.0
65.4	831.0
65.41	850.0
65.42	823.0
65.43	837.0
65.44	820.0
65.45	827.0
65.46	809.0
65.47	822.0
65.48	812.0
65.49	854.0
65.5	845.0
65.51	833.0
65.52	852.0
65.53	847.0
65.54	863.0
65.55	854.0
65.56	835.0
65.57	862.0
65.58	862.0
65.59	863.0
65.6	852.0
65.61	838.0
65.62	835.0
65.63	896.0
65.64	863.0
65.65	833.0
65.66	846.0
65.67	863.0
65.68	895.0
65.69	850.0
65.7	862.0
65.71	877.0
65.72	949.0
65.73	949.0
65.74	982.0
65.75	982.0
65.76	980.0
65.77	997.0
65.78	1024.0
65.79	1077.0
65.8	1090.0
65.81	1145.0
65.82	1247.0
65.83	1303.0
65.84	1386.0
65.85	1448.0
65.86	1492.0
65.87	1563.0
65.88	1568.0
65.89	1600.0
65.9	1610.0
65.91	1641.0
65.92	1600.0
65.93	1636.0
65.94	1564.0
65.95	1523.0
65.96	1505.0
65.97	1467.0
65.98	1427.0
65.99	1438.0
66.0	1418.0
66.01	1386.0
66.02	1415.0
66.03	1404.0
66.04	1433.0
66.05	1489.0
66.06	1415.0
66.07	1454.0
66.08	1467.0
66.09	1436.0
66.1	1348.0
66.11	1368.0
66.12	1351.0
66.13	1317.0
66.14	1304.0
66.15	1242.0
66.16	1199.0
66.17	1188.0
66.18	1176.0
66.19	1111.0
66.2	1093.0
66.21	1065.0
66.22	1066.0
66.23	1075.0
66.24	1027.0
66.25	1011.0
66.26	997.0
66.27	982.0
66.28	955.0
66.29	979.0
66.3	931.0
66.31	972.0
66.32	943.0
66.33	968.0
66.34	920.0
66.35	936.0
66.36	928.0
66.37	905.0
66.38	897.0
66.39	897.0
66.4	903.0
66.41	909.0
66.42	874.0
66.43	881.0
66.44	899.0
66.45	879.0
66.46	883.0
66.47	882.0
66.48	874.0
66.49	888.0
66.5	861.0
66.51	891.0
66.52	853.0
66.53	834.0
66.54	870.0
66.55	846.0
66.56	852.0
66.57	841.0
66.58	798.0
66.59	808.0
66.6	815.0
66.61	824.0
66.62	842.0
66.63	844.0
66.64	847.0
66.65	832.0
66.66	820.0
66.67	825.0
66.68	833.0
66.69	865.0
66.7	857.0
66.71	822.0
66.72	814.0
66.73	831.0
66.74	786.0
66.75	777.0
66.76	850.0
66.77	868.0
66.78	816.0
66.79	791.0
66.8	810.0
66.81	828.0
66.82	809.0
66.83	824.0
66.84	836.0
66.85	815.0
66.86	800.0
66.87	794.0
66.88	819.0
66.89	811.0
66.9	801.0
66.91	835.0
66.92	813.0
66.93	788.0
66.94	785.0
66.95	813.0
66.96	814.0
66.97	796.0
66.98	805.0
66.99	751.0
67.0	753.0
67.01	794.0
67.02	822.0
67.03	813.0
67.04	811.0
67.05	803.0
67.06	780.0
67.07	746.0
67.08	773.0
67.09	801.0
67.1	852.0
67.11	823.0
67.12	799.0
67.13	772.0
67.14	817.0
67.15	828.0
67.16	825.0
67.17	805.0
67.18	800.0
67.19	764.0
67.2	784.0
67.21	798.0
67.22	798.0
67.23	786.0
67.24	764.0
67.25	794.0
67.26	827.0
67.27	830.0
67.28	821.0
67.29	800.0
67.3	780.0
67.31	749.0
67.32	785.0
67.33	807.0
67.34	786.0
67.35	752.0
67.36	765.0
67.37	830.0
67.38	811.0
67.39	784.0
67.4	794.0
67.41	801.0
67.42	786.0
67.43	825.0
67.44	819.0
67.45	789.0
67.46	788.0
67.47	768.0
67.48	785.0
67.49	773.0
67.5	781.0
67.51	775.0
67.52	769.0
67.53	756.0
67.54	853.0
67.55	792.0
67.56	800.0
67.57	836.0
67.58	793.0
67.59	775.0
67.6	800.0
67.61	788.0
67.62	769.0
67.63	787.0
67.64	780.0
67.65	786.0
67.66	813.0
67.67	778.0
67.68	757.0
67.69	781.0
67.7	776.0
67.71	790.0
67.72	785.0
67.73	764.0
67.74	786.0
67.75	758.0
67.76	751.0
67.77	764.0
67.78	785.0
67.79	770.0
67.8	773.0
67.81	776.0
67.82	794.0
67.83	786.0
67.84	785.0
67.85	807.0
67.86	812.0
67.87	793.0
67.88	784.0
67.89	796.0
67.9	799.0
67.91	804.0
67.92	791.0
67.93	779.0
67.94	802.0
67.95	812.0
67.96	752.0
67.97	815.0
67.98	802.0
67.99	768.0
68.0	799.0
68.01	821.0
68.02	792.0
68.03	796.0
68.04	801.0
68.05	794.0
68.06	823.0
68.07	802.0
68.08	802.0
68.09	797.0
68.1	772.0
68.11	763.0
68.12	782.0
68.13	764.0
68.14	777.0
68.15	776.0
68.16	818.0
68.17	810.0
68.18	787.0
68.19	777.0
68.2	782.0
68.21	806.0
68.22	812.0
68.23	807.0
68.24	765.0
68.25	782.0
68.26	834.0
68.27	804.0
68.28	792.0
68.29	798.0
68.3	763.0
68.31	732.0
68.32	740.0
68.33	763.0
68.34	778.0
68.35	763.0
68.36	767.0
68.37	756.0
68.38	803.0
68.39	790.0
68.4	794.0
68.41	785.0
68.42	783.0
68.43	797.0
68.44	801.0
68.45	783.0
68.46	818.0
68.47	841.0
68.48	793.0
68.49	779.0
68.5	819.0
68.51	838.0
68.52	796.0
68.53	773.0
68.54	774.0
68.55	750.0
68.56	788.0
68.57	787.0
68.58	776.0
68.59	779.0
68.6	790.0
68.61	771.0
68.62	752.0
68.63	800.0
68.64	769.0
68.65	772.0
68.66	797.0
68.67	789.0
68.68	792.0
68.69	758.0
68.7	772.0
68.71	741.0
68.72	738.0
68.73	762.0
68.74	806.0
68.75	796.0
68.76	771.0
68.77	781.0
68.78	799.0
68.79	777.0
68.8	798.0
68.81	779.0
68.82	762.0
68.83	801.0
68.84	768.0
68.85	764.0
68.86	766.0
68.87	778.0
68.88	772.0
68.89	747.0
68.9	758.0
68.91	767.0
68.92	755.0
68.93	788.0
68.94	779.0
68.95	779.0
68.96	763.0
68.97	791.0
68.98	783.0
68.99	790.0
69.0	795.0
69.01	788.0
69.02	792.0
69.03	792.0
69.04	778.0
69.05	786.0
69.06	793.0
69.07	831.0
69.08	821.0
69.09	811.0
69.1	807.0
69.11	781.0
69.12	799.0
69.13	793.0
69.14	803.0
69.15	809.0
69.16	812.0
69.17	821.0
69.18	765.0
69.19	770.0
69.2	795.0
69.21	768.0
69.22	767.0
69.23	762.0
69.24	785.0
69.25	764.0
69.26	780.0
69.27	806.0
69.28	795.0
69.29	786.0
69.3	755.0
69.31	794.0
69.32	789.0
69.33	761.0
69.34	787.0
69.35	766.0
69.36	755.0
69.37	767.0
69.38	770.0
69.39	777.0
69.4	793.0
69.41	794.0
69.42	797.0
69.43	782.0
69.44	750.0
69.45	780.0
69.46	793.0
69.47	783.0
69.48	756.0
69.49	769.0
69.5	802.0
69.51	811.0
69.52	751.0
69.53	765.0
69.54	773.0
69.55	788.0
69.56	806.0
69.57	809.0
69.58	789.0
69.59	781.0
69.6	791.0
69.61	805.0
69.62	776.0
69.63	761.0
69.64	753.0
69.65	790.0
69.66	785.0
69.67	766.0
69.68	762.0
69.69	785.0
69.7	822.0
69.71	776.0
69.72	748.0
69.73	776.0
69.74	752.0
69.75	702.0
69.76	754.0
69.77	770.0
69.78	787.0
69.79	786.0
69.8	756.0
69.81	753.0
69.82	781.0
69.83	750.0
69.84	741.0
69.85	752.0
69.86	773.0
69.87	809.0
69.88	771.0
69.89	763.0
69.9	769.0
69.91	789.0
69.92	807.0
69.93	747.0
69.94	738.0
69.95	766.0
69.96	781.0
69.97	735.0
69.98	754.0
69.99	813.0
70.0	797.0
70.01	802.0
70.02	782.0
70.03	737.0
70.04	754.0
70.05	777.0
70.06	770.0
70.07	764.0
70.08	738.0
70.09	764.0
70.1	745.0
70.11	725.0
70.12	765.0
70.13	784.0
70.14	769.0
70.15	761.0
70.16	753.0
70.17	784.0
70.18	785.0
70.19	766.0
70.2	778.0
70.21	777.0
70.22	775.0
70.23	766.0
70.24	772.0
70.25	775.0
70.26	764.0
70.27	747.0
70.28	740.0
70.29	771.0
70.3	788.0
70.31	806.0
70.32	829.0
70.33	827.0
70.34	788.0
70.35	755.0
70.36	761.0
70.37	794.0
70.38	755.0
70.39	774.0
70.4	800.0
70.41	779.0
70.42	797.0
70.43	800.0
70.44	776.0
70.45	756.0
70.46	750.0
70.47	777.0
70.48	802.0
70.49	779.0
70.5	787.0
70.51	794.0
70.52	776.0
70.53	772.0
70.54	799.0
70.55	782.0
70.56	778.0
70.57	781.0
70.58	737.0
70.59	747.0
70.6	776.0
70.61	760.0
70.62	760.0
70.63	754.0
70.64	761.0
70.65	768.0
70.66	766.0
70.67	779.0
70.68	776.0
70.69	790.0
70.7	768.0
70.71	754.0
70.72	774.0
70.73	772.0
70.74	775.0
70.75	769.0
70.76	743.0
70.77	756.0
70.78	770.0
70.79	768.0
70.8	794.0
70.81	794.0
70.82	762.0
70.83	766.0
70.84	755.0
70.85	772.0
70.86	783.0
70.87	789.0
70.88	779.0
70.89	766.0
70.9	779.0
70.91	762.0
70.92	764.0
70.93	756.0
70.94	749.0
70.95	751.0
70.96	761.0
70.97	771.0
70.98	768.0
70.99	786.0
71.0	826.0
71.01	840.0
71.02	832.0
71.03	838.0
71.04	816.0
71.05	797.0
71.06	804.0
71.07	845.0
71.08	839.0
71.09	852.0
71.1	852.0
71.11	836.0
71.12	853.0
71.13	845.0
71.14	844.0
71.15	857.0
71.16	844.0
71.17	842.0
71.18	813.0
71.19	793.0
71.2	797.0
71.21	806.0
71.22	824.0
71.23	822.0
71.24	813.0
71.25	816.0
71.26	808.0
71.27	807.0
71.28	816.0
71.29	811.0
71.3	820.0
71.31	845.0
71.32	816.0
71.33	806.0
71.34	780.0
71.35	803.0
71.36	817.0
71.37	769.0
71.38	784.0
71.39	772.0
71.4	765.0
71.41	760.0
71.42	766.0
71.43	779.0
71.44	769.0
71.45	798.0
71.46	805.0
71.47	785.0
71.48	773.0
71.49	750.0
71.5	776.0
71.51	768.0
71.52	761.0
71.53	759.0
71.54	776.0
71.55	755.0
71.56	782.0
71.57	762.0
71.58	713.0
71.59	750.0
71.6	767.0
71.61	784.0
71.62	762.0
71.63	770.0
71.64	764.0
71.65	781.0
71.66	783.0
71.67	752.0
71.68	775.0
71.69	782.0
71.7	788.0
71.71	737.0
71.72	750.0
71.73	780.0
71.74	754.0
71.75	746.0
71.76	725.0
71.77	706.0
71.78	729.0
71.79	760.0
71.8	733.0
71.81	765.0
71.82	820.0
71.83	781.0
71.84	803.0
71.85	775.0
71.86	756.0
71.87	765.0
71.88	757.0
71.89	758.0
71.9	766.0
71.91	790.0
71.92	798.0
71.93	758.0
71.94	749.0
71.95	754.0
71.96	729.0
71.97	742.0
71.98	753.0
71.99	736.0
72.0	765.0
72.01	773.0
72.02	764.0
72.03	765.0
72.04	736.0
72.05	766.0
72.06	762.0
72.07	746.0
72.08	748.0
72.09	795.0
72.1	756.0
72.11	747.0
72.12	772.0
72.13	760.0
72.14	750.0
72.15	746.0
72.16	741.0
72.17	758.0
72.18	752.0
72.19	743.0
72.2	747.0
72.21	722.0
72.22	691.0
72.23	749.0
72.24	752.0
72.25	719.0
72.26	728.0
72.27	735.0
72.28	767.0
72.29	751.0
72.3	738.0
72.31	747.0
72.32	745.0
72.33	732.0
72.34	758.0
72.35	805.0
72.36	810.0
72.37	766.0
72.38	713.0
72.39	740.0
72.4	768.0
72.41	767.0
72.42	759.0
72.43	761.0
72.44	747.0
72.45	777.0
72.46	743.0
72.47	764.0
72.48	795.0
72.49	795.0
72.5	791.0
72.51	768.0
72.52	753.0
72.53	769.0
72.54	760.0
72.55	739.0
72.56	732.0
72.57	739.0
72.58	763.0
72.59	744.0
72.6	749.0
72.61	737.0
72.62	767.0
72.63	750.0
72.64	762.0
72.65	767.0
72.66	755.0
72.67	806.0
72.68	785.0
72.69	744.0
72.7	733.0
72.71	747.0
72.72	744.0
72.73	738.0
72.74	752.0
72.75	781.0
72.76	776.0
72.77	774.0
72.78	749.0
72.79	747.0
72.8	762.0
72.81	780.0
72.82	768.0
72.83	754.0
72.84	770.0
72.85	755.0
72.86	763.0
72.87	782.0
72.88	753.0
72.89	755.0
72.9	762.0
72.91	767.0
72.92	752.0
72.93	752.0
72.94	770.0
72.95	770.0
72.96	776.0
72.97	784.0
72.98	738.0
72.99	739.0
73.0	759.0
73.01	736.0
73.02	753.0
73.03	786.0
73.04	756.0
73.05	745.0
73.06	734.0
73.07	735.0
73.08	744.0
73.09	752.0
73.1	761.0
73.11	747.0
73.12	779.0
73.13	768.0
73.14	749.0
73.15	764.0
73.16	756.0
73.17	768.0
73.18	773.0
73.19	779.0
73.2	760.0
73.21	697.0
73.22	711.0
73.23	775.0
73.24	757.0
73.25	749.0
73.26	761.0
73.27	747.0
73.28	773.0
73.29	781.0
73.3	799.0
73.31	784.0
73.32	797.0
73.33	800.0
73.34	758.0
73.35	775.0
73.36	796.0
73.37	777.0
73.38	781.0
73.39	775.0
73.4	767.0
73.41	740.0
73.42	736.0
73.43	739.0
73.44	764.0
73.45	782.0
73.46	763.0
73.47	778.0
73.48	784.0
73.49	785.0
73.5	728.0
73.51	750.0
73.52	750.0
73.53	732.0
73.54	767.0
73.55	756.0
73.56	753.0
73.57	772.0
73.58	776.0
73.59	778.0
73.6	763.0
73.61	762.0
73.62	793.0
73.63	807.0
73.64	787.0
73.65	790.0
73.66	778.0
73.67	791.0
73.68	796.0
73.69	780.0
73.7	751.0
73.71	775.0
73.72	756.0
73.73	781.0
73.74	823.0
73.75	798.0
73.76	816.0
73.77	832.0
73.78	839.0
73.79	823.0
73.8	810.0
73.81	796.0
73.82	790.0
73.83	821.0
73.84	815.0
73.85	786.0
73.86	798.0
73.87	828.0
73.88	838.0
73.89	792.0
73.9	821.0
73.91	786.0
73.92	830.0
73.93	878.0
73.94	831.0
73.95	851.0
73.96	893.0
73.97	880.0
73.98	907.0
73.99	937.0
74.0	946.0
74.01	972.0
74.02	999.0
74.03	1051.0
74.04	1111.0
74.05	1149.0
74.06	1179.0
74.07	1198.0
74.08	1308.0
74.09	1392.0
74.1	1406.0
74.11	1433.0
74.12	1510.0
74.13	1530.0
74.14	1477.0
74.15	1490.0
74.16	1507.0
74.17	1382.0
74.18	1354.0
74.19	1347.0
74.2	1298.0
74.21	1241.0
74.22	1223.0
74.23	1280.0
74.24	1255.0
74.25	1209.0
74.26	1234.0
74.27	1264.0
74.28	1248.0
74.29	1252.0
74.3	1223.0
74.31	1288.0
74.32	1246.0
74.33	1289.0
74.34	1268.0
74.35	1241.0
74.36	1200.0
74.37	1210.0
74.38	1202.0
74.39	1163.0
74.4	1109.0
74.41	1101.0
74.42	1094.0
74.43	1087.0
74.44	1063.0
74.45	1051.0
74.46	1017.0
74.47	1017.0
74.48	982.0
74.49	993.0
74.5	961.0
74.51	935.0
74.52	950.0
74.53	943.0
74.54	925.0
74.55	943.0
74.56	900.0
74.57	905.0
74.58	881.0
74.59	864.0
74.6	869.0
74.61	881.0
74.62	857.0
74.63	855.0
74.64	859.0
74.65	851.0
74.66	861.0
74.67	845.0
74.68	841.0
74.69	839.0
74.7	833.0
74.71	839.0
74.72	820.0
74.73	802.0
74.74	822.0
74.75	851.0
74.76	868.0
74.77	836.0
74.78	857.0
74.79	814.0
74.8	802.0
74.81	790.0
74.82	818.0
74.83	813.0
74.84	766.0
74.85	795.0
74.86	820.0
74.87	805.0
74.88	817.0
74.89	857.0
74.9	841.0
74.91	836.0
74.92	855.0
74.93	826.0
74.94	815.0
74.95	808.0
74.96	818.0
74.97	839.0
74.98	852.0
74.99	863.0
75.0	897.0
75.01	921.0
75.02	914.0
75.03	952.0
75.04	954.0
75.05	1015.0
75.06	1016.0
75.07	1023.0
75.08	1072.0
75.09	1086.0
75.1	1113.0
75.11	1139.0
75.12	1184.0
75.13	1179.0
75.14	1159.0
75.15	1123.0
75.16	1193.0
75.17	1197.0
75.18	1128.0
75.19	1142.0
75.2	1127.0
75.21	1097.0
75.22	1113.0
75.23	1092.0
75.24	1035.0
75.25	1044.0
75.26	1064.0
75.27	1060.0
75.28	1068.0
75.29	1049.0
75.3	1052.0
75.31	1055.0
75.32	1039.0
75.33	1083.0
75.34	1058.0
75.35	1048.0
75.36	1075.0
75.37	1055.0
75.38	1031.0
75.39	971.0
75.4	1012.0
75.41	1023.0
75.42	1045.0
75.43	984.0
75.44	991.0
75.45	990.0
75.46	951.0
75.47	915.0
75.48	893.0
75.49	883.0
75.5	876.0
75.51	878.0
75.52	892.0
75.53	883.0
75.54	874.0
75.55	887.0
75.56	874.0
75.57	863.0
75.58	829.0
75.59	848.0
75.6	856.0
75.61	869.0
75.62	838.0
75.63	845.0
75.64	816.0
75.65	818.0
75.66	833.0
75.67	846.0
75.68	828.0
75.69	804.0
75.7	800.0
75.71	789.0
75.72	804.0
75.73	815.0
75.74	801.0
75.75	778.0
75.76	794.0
75.77	814.0
75.78	829.0
75.79	808.0
75.8	766.0
75.81	781.0
75.82	820.0
75.83	794.0
75.84	784.0
75.85	773.0
75.86	758.0
75.87	785.0
75.88	761.0
75.89	789.0
75.9	771.0
75.91	770.0
75.92	799.0
75.93	806.0
75.94	818.0
75.95	779.0
75.96	754.0
75.97	778.0
75.98	780.0
75.99	769.0
76.0	756.0
76.01	763.0
76.02	748.0
76.03	774.0
76.04	789.0
76.05	800.0
76.06	778.0
76.07	777.0
76.08	756.0
76.09	737.0
76.1	769.0
76.11	752.0
76.12	736.0
76.13	748.0
76.14	758.0
76.15	755.0
76.16	765.0
76.17	768.0
76.18	776.0
76.19	775.0
76.2	747.0
76.21	767.0
76.22	783.0
76.23	801.0
76.24	776.0
76.25	765.0
76.26	747.0
76.27	749.0
76.28	772.0
76.29	747.0
76.3	728.0
76.31	762.0
76.32	797.0
76.33	792.0
76.34	745.0
76.35	760.0
76.36	758.0
76.37	757.0
76.38	780.0
76.39	786.0
76.4	756.0
76.41	759.0
76.42	727.0
76.43	704.0
76.44	724.0
76.45	747.0
76.46	752.0
76.47	774.0
76.48	811.0
76.49	787.0
76.5	749.0
76.51	742.0
76.52	759.0
76.53	743.0
76.54	735.0
76.55	755.0
76.56	752.0
76.57	741.0
76.58	738.0
76.59	758.0
76.6	780.0
76.61	776.0
76.62	762.0
76.63	744.0
76.64	725.0
76.65	748.0
76.66	741.0
76.67	734.0
76.68	755.0
76.69	747.0
76.7	755.0
76.71	760.0
76.72	769.0
76.73	764.0
76.74	757.0
76.75	734.0
76.76	747.0
76.77	729.0
76.78	761.0
76.79	773.0
76.8	756.0
76.81	752.0
76.82	727.0
76.83	767.0
76.84	736.0
76.85	734.0
76.86	695.0
76.87	686.0
76.88	726.0
76.89	756.0
76.9	744.0
76.91	752.0
76.92	705.0
76.93	722.0
76.94	717.0
76.95	752.0
76.96	736.0
76.97	729.0
76.98	774.0
76.99	771.0
77.0	765.0
77.01	764.0
77.02	725.0
77.03	764.0
77.04	762.0
77.05	717.0
77.06	713.0
77.07	712.0
77.08	721.0
77.09	720.0
77.1	753.0
77.11	751.0
77.12	747.0
77.13	696.0
77.14	718.0
77.15	722.0
77.16	727.0
77.17	743.0
77.18	750.0
77.19	741.0
77.2	729.0
77.21	707.0
77.22	746.0
77.23	730.0
77.24	696.0
77.25	699.0
77.26	708.0
77.27	723.0
77.28	742.0
77.29	747.0
77.3	727.0
77.31	717.0
77.32	753.0
77.33	759.0
77.34	733.0
77.35	754.0
77.36	751.0
77.37	737.0
77.38	715.0
77.39	733.0
77.4	732.0
77.41	728.0
77.42	728.0
77.43	748.0
77.44	704.0
77.45	715.0
77.46	757.0
77.47	732.0
77.48	749.0
77.49	766.0
77.5	738.0
77.51	737.0
77.52	721.0
77.53	739.0
77.54	740.0
77.55	779.0
77.56	749.0
77.57	726.0
77.58	752.0
77.59	739.0
77.6	724.0
77.61	717.0
77.62	734.0
77.63	732.0
77.64	731.0
77.65	714.0
77.66	744.0
77.67	742.0
77.68	737.0
77.69	711.0
77.7	727.0
77.71	738.0
77.72	724.0
77.73	745.0
77.74	744.0
77.75	694.0
77.76	711.0
77.77	734.0
77.78	728.0
77.79	714.0
77.8	707.0
77.81	734.0
77.82	731.0
77.83	730.0
77.84	734.0
77.85	744.0
77.86	741.0
77.87	746.0
77.88	730.0
77.89	731.0
77.9	735.0
77.91	729.0
77.92	763.0
77.93	767.0
77.94	755.0
77.95	773.0
77.96	747.0
77.97	742.0
77.98	697.0
77.99	702.0
78.0	712.0
78.01	727.0
78.02	756.0
78.03	770.0
78.04	749.0
78.05	735.0
78.06	727.0
78.07	706.0
78.08	738.0
78.09	740.0
78.1	739.0
78.11	702.0
78.12	737.0
78.13	762.0
78.14	745.0
78.15	740.0
78.16	753.0
78.17	725.0
78.18	720.0
78.19	711.0
78.2	735.0
78.21	750.0
78.22	754.0
78.23	701.0
78.24	694.0
78.25	722.0
78.26	723.0
78.27	731.0
78.28	748.0
78.29	747.0
78.3	746.0
78.31	759.0
78.32	747.0
78.33	707.0
78.34	696.0
78.35	726.0
78.36	730.0
78.37	746.0
78.38	767.0
78.39	736.0
78.4	736.0
78.41	739.0
78.42	745.0
78.43	752.0
78.44	769.0
78.45	745.0
78.46	745.0
78.47	762.0
78.48	777.0
78.49	753.0
78.5	746.0
78.51	738.0
78.52	721.0
78.53	757.0
78.54	766.0
78.55	709.0
78.56	697.0
78.57	720.0
78.58	737.0
78.59	750.0
78.6	770.0
78.61	788.0
78.62	750.0
78.63	736.0
78.64	759.0
78.65	726.0
78.66	711.0
78.67	739.0
78.68	743.0
78.69	738.0
78.7	731.0
78.71	750.0
78.72	759.0
78.73	758.0
78.74	760.0
78.75	765.0
78.76	774.0
78.77	770.0
78.78	765.0
78.79	760.0
78.8	803.0
78.81	812.0
78.82	775.0
78.83	749.0
78.84	783.0
78.85	807.0
78.86	809.0
78.87	832.0
78.88	812.0
78.89	805.0
78.9	787.0
78.91	784.0
78.92	810.0
78.93	823.0
78.94	849.0
78.95	847.0
78.96	841.0
78.97	848.0
78.98	923.0
78.99	975.0
79.0	1030.0
79.01	1017.0
79.02	1034.0
79.03	1075.0
79.04	1115.0
79.05	1154.0
79.06	1179.0
79.07	1318.0
79.08	1354.0
79.09	1375.0
79.1	1433.0
79.11	1404.0
79.12	1328.0
79.13	1325.0
79.14	1340.0
79.15	1314.0
79.16	1292.0
79.17	1259.0
79.18	1266.0
79.19	1251.0
79.2	1217.0
79.21	1157.0
79.22	1155.0
79.23	1130.0
79.24	1137.0
79.25	1139.0
79.26	1150.0
79.27	1164.0
79.28	1140.0
79.29	1190.0
79.3	1187.0
79.31	1191.0
79.32	1200.0
79.33	1219.0
79.34	1194.0
79.35	1163.0
79.36	1177.0
79.37	1180.0
79.38	1124.0
79.39	1060.0
79.4	1091.0
79.41	1068.0
79.42	1060.0
79.43	1036.0
79.44	1004.0
79.45	986.0
79.46	1019.0
79.47	997.0
79.48	950.0
79.49	931.0
79.5	930.0
79.51	947.0
79.52	945.0
79.53	926.0
79.54	890.0
79.55	858.0
79.56	870.0
79.57	852.0
79.58	866.0
79.59	886.0
79.6	866.0
79.61	833.0
79.62	823.0
79.63	812.0
79.64	840.0
79.65	820.0
79.66	824.0
79.67	776.0
79.68	800.0
79.69	822.0
79.7	813.0
79.71	807.0
79.72	804.0
79.73	803.0
79.74	791.0
79.75	780.0
79.76	774.0
79.77	797.0
79.78	787.0
79.79	791.0
79.8	790.0
79.81	801.0
79.82	775.0
79.83	752.0
79.84	765.0
79.85	764.0
79.86	769.0
79.87	752.0
79.88	766.0
79.89	791.0
79.9	786.0
79.91	774.0
79.92	782.0
79.93	756.0
79.94	751.0
79.95	770.0
79.96	806.0
79.97	796.0
79.98	790.0
79.99	778.0
80.0	773.0
80.01	774.0
80.02	780.0
80.03	758.0
80.04	753.0
80.05	753.0
80.06	772.0
80.07	772.0
80.08	816.0
80.09	773.0
80.1	777.0
80.11	771.0
80.12	778.0
80.13	759.0
80.14	748.0
80.15	752.0
80.16	749.0
80.17	767.0
80.18	775.0
80.19	743.0
80.2	758.0
80.21	750.0
80.22	720.0
80.23	729.0
80.24	735.0
80.25	727.0
80.26	734.0
80.27	722.0
80.28	747.0
80.29	746.0
80.3	768.0
80.31	771.0
80.32	762.0
80.33	771.0
80.34	768.0
80.35	765.0
80.36	782.0
80.37	744.0
80.38	736.0
80.39	731.0
80.4	753.0
80.41	750.0
80.42	722.0
80.43	722.0
80.44	737.0
80.45	746.0
80.46	757.0
80.47	745.0
80.48	721.0
80.49	705.0
80.5	715.0
80.51	768.0
80.52	735.0
80.53	752.0
80.54	756.0
80.55	738.0
80.56	745.0
80.57	764.0
80.58	752.0
80.59	761.0
80.6	791.0
80.61	772.0
80.62	735.0
80.63	761.0
80.64	782.0
80.65	771.0
80.66	756.0
80.67	762.0
80.68	748.0
80.69	745.0
80.7	769.0
80.71	759.0
80.72	749.0
80.73	739.0
80.74	737.0
80.75	746.0
80.76	760.0
80.77	761.0
80.78	743.0
80.79	720.0
80.8	738.0
80.81	736.0
80.82	725.0
80.83	740.0
80.84	755.0
80.85	739.0
80.86	768.0
80.87	765.0
80.88	753.0
80.89	761.0
80.9	762.0
80.91	737.0
80.92	759.0
80.93	785.0
80.94	767.0
80.95	757.0
80.96	742.0
80.97	746.0
80.98	750.0
80.99	740.0
81.0	707.0
81.01	731.0
81.02	746.0
81.03	724.0
81.04	722.0
81.05	760.0
81.06	737.0
81.07	750.0
81.08	735.0
81.09	740.0
81.1	737.0
81.11	720.0
81.12	727.0
81.13	733.0
81.14	730.0
81.15	725.0
81.16	734.0
81.17	741.0
81.18	753.0
81.19	740.0
81.2	735.0
81.21	740.0
81.22	729.0
81.23	708.0
81.24	702.0
81.25	713.0
81.26	743.0
81.27	758.0
81.28	742.0
81.29	716.0
81.3	748.0
81.31	744.0
81.32	745.0
81.33	747.0
81.34	706.0
81.35	726.0
81.36	721.0
81.37	710.0
81.38	733.0
81.39	757.0
81.4	760.0
81.41	757.0
81.42	759.0
81.43	763.0
81.44	739.0
81.45	717.0
81.46	706.0
81.47	719.0
81.48	742.0
81.49	766.0
81.5	754.0
81.51	720.0
81.52	723.0
81.53	720.0
81.54	722.0
81.55	715.0
81.56	758.0
81.57	730.0
81.58	748.0
81.59	760.0
81.6	743.0
81.61	745.0
81.62	768.0
81.63	750.0
81.64	721.0
81.65	752.0
81.66	760.0
81.67	756.0
81.68	758.0
81.69	771.0
81.7	743.0
81.71	727.0
81.72	728.0
81.73	735.0
81.74	754.0
81.75	782.0
81.76	768.0
81.77	787.0
81.78	793.0
81.79	769.0
81.8	748.0
81.81	766.0
81.82	751.0
81.83	789.0
81.84	808.0
81.85	791.0
81.86	780.0
81.87	796.0
81.88	835.0
81.89	850.0
81.9	826.0
81.91	816.0
81.92	868.0
81.93	866.0
81.94	851.0
81.95	872.0
81.96	912.0
81.97	980.0
81.98	1006.0
81.99	995.0
82.0	1043.0
82.01	1062.0
82.02	1066.0
82.03	1084.0
82.04	1093.0
82.05	1109.0
82.06	1135.0
82.07	1122.0
82.08	1084.0
82.09	1076.0
82.1	1060.0
82.11	1023.0
82.12	994.0
82.13	1020.0
82.14	1021.0
82.15	1026.0
82.16	1019.0
82.17	1009.0
82.18	945.0
82.19	957.0
82.2	929.0
82.21	913.0
82.22	950.0
82.23	1008.0
82.24	1000.0
82.25	1000.0
82.26	1010.0
82.27	986.0
82.28	985.0
82.29	1012.0
82.3	1018.0
82.31	1003.0
82.32	982.0
82.33	967.0
82.34	1000.0
82.35	955.0
82.36	911.0
82.37	882.0
82.38	891.0
82.39	916.0
82.4	946.0
82.41	898.0
82.42	877.0
82.43	887.0
82.44	905.0
82.45	883.0
82.46	845.0
82.47	836.0
82.48	870.0
82.49	864.0
82.5	855.0
82.51	843.0
82.52	806.0
82.53	820.0
82.54	823.0
82.55	834.0
82.56	846.0
82.57	857.0
82.58	825.0
82.59	808.0
82.6	828.0
82.61	782.0
82.62	784.0
82.63	791.0
82.64	783.0
82.65	790.0
82.66	825.0
82.67	803.0
82.68	770.0
82.69	753.0
82.7	765.0
82.71	783.0
82.72	772.0
82.73	783.0
82.74	758.0
82.75	751.0
82.76	775.0
82.77	765.0
82.78	772.0
82.79	777.0
82.8	754.0
82.81	735.0
82.82	742.0
82.83	749.0
82.84	741.0
82.85	725.0
82.86	768.0
82.87	753.0
82.88	740.0
82.89	756.0
82.9	745.0
82.91	739.0
82.92	735.0
82.93	741.0
82.94	753.0
82.95	758.0
82.96	772.0
82.97	786.0
82.98	753.0
82.99	739.0
83.0	728.0
83.01	723.0
83.02	744.0
83.03	752.0
83.04	737.0
83.05	758.0
83.06	763.0
83.07	756.0
83.08	727.0
83.09	725.0
83.1	739.0
83.11	729.0
83.12	774.0
83.13	773.0
83.14	732.0
83.15	734.0
83.16	735.0
83.17	744.0
83.18	767.0
83.19	761.0
83.2	716.0
83.21	749.0
83.22	732.0
83.23	752.0
83.24	774.0
83.25	782.0
83.26	759.0
83.27	750.0
83.28	744.0
83.29	728.0
83.3	699.0
83.31	755.0
83.32	759.0
83.33	743.0
83.34	724.0
83.35	712.0
83.36	724.0
83.37	746.0
83.38	750.0
83.39	756.0
83.4	738.0
83.41	732.0
83.42	717.0
83.43	712.0
83.44	750.0
83.45	763.0
83.46	728.0
83.47	735.0
83.48	727.0
83.49	761.0
83.5	738.0
83.51	728.0
83.52	746.0
83.53	761.0
83.54	748.0
83.55	759.0
83.56	762.0
83.57	752.0
83.58	747.0
83.59	729.0
83.6	754.0
83.61	749.0
83.62	746.0
83.63	739.0
83.64	724.0
83.65	729.0
83.66	745.0
83.67	722.0
83.68	709.0
83.69	743.0
83.7	762.0
83.71	743.0
83.72	715.0
83.73	707.0
83.74	729.0
83.75	725.0
83.76	743.0
83.77	752.0
83.78	755.0
83.79	753.0
83.8	749.0
83.81	772.0
83.82	764.0
83.83	752.0
83.84	729.0
83.85	717.0
83.86	743.0
83.87	757.0
83.88	743.0
83.89	755.0
83.9	739.0
83.91	739.0
83.92	748.0
83.93	744.0
83.94	758.0
83.95	758.0
83.96	744.0
83.97	733.0
83.98	740.0
83.99	748.0
84.0	739.0
84.01	738.0
84.02	734.0
84.03	721.0
84.04	716.0
84.05	724.0
84.06	708.0
84.07	713.0
84.08	713.0
84.09	719.0
84.1	714.0
84.11	734.0
84.12	732.0
84.13	716.0
84.14	715.0
84.15	717.0
84.16	729.0
84.17	734.0
84.18	743.0
84.19	733.0
84.2	727.0
84.21	708.0
84.22	695.0
84.23	707.0
84.24	708.0
84.25	730.0
84.26	742.0
84.27	725.0
84.28	719.0
84.29	709.0
84.3	728.0
84.31	742.0
84.32	769.0
84.33	741.0
84.34	726.0
84.35	745.0
84.36	736.0
84.37	741.0
84.38	741.0
84.39	706.0
84.4	704.0
84.41	745.0
84.42	774.0
84.43	752.0
84.44	710.0
84.45	694.0
84.46	717.0
84.47	747.0
84.48	744.0
84.49	735.0
84.5	719.0
84.51	711.0
84.52	742.0
84.53	747.0
84.54	728.0
84.55	717.0
84.56	714.0
84.57	718.0
84.58	682.0
84.59	705.0
84.6	716.0
84.61	716.0
84.62	722.0
84.63	740.0
84.64	735.0
84.65	723.0
84.66	708.0
84.67	707.0
84.68	744.0
84.69	728.0
84.7	705.0
84.71	715.0
84.72	738.0
84.73	737.0
84.74	729.0
84.75	700.0
84.76	693.0
84.77	721.0
84.78	752.0
84.79	755.0
84.8	726.0
84.81	733.0
84.82	737.0
84.83	723.0
84.84	738.0
84.85	751.0
84.86	756.0
84.87	737.0
84.88	738.0
84.89	732.0
84.9	724.0
84.91	724.0
84.92	702.0
84.93	721.0
84.94	745.0
84.95	721.0
84.96	737.0
84.97	743.0
84.98	740.0
84.99	708.0
85.0	708.0
85.01	738.0
85.02	722.0
85.03	708.0
85.04	719.0
85.05	710.0
85.06	721.0
85.07	729.0
85.08	741.0
85.09	734.0
85.1	727.0
85.11	727.0
85.12	735.0
85.13	741.0
85.14	719.0
85.15	715.0
85.16	692.0
85.17	708.0
85.18	697.0
85.19	717.0
85.2	755.0
85.21	753.0
85.22	741.0
85.23	735.0
85.24	750.0
85.25	750.0
85.26	751.0
85.27	745.0
85.28	732.0
85.29	714.0
85.3	700.0
85.31	721.0
85.32	722.0
85.33	746.0
85.34	739.0
85.35	729.0
85.36	696.0
85.37	688.0
85.38	717.0
85.39	725.0
85.4	729.0
85.41	732.0
85.42	730.0
85.43	747.0
85.44	730.0
85.45	716.0
85.46	724.0
85.47	740.0
85.48	748.0
85.49	738.0
85.5	731.0
85.51	768.0
85.52	778.0
85.53	744.0
85.54	714.0
85.55	700.0
85.56	718.0
85.57	743.0
85.58	707.0
85.59	704.0
85.6	702.0
85.61	718.0
85.62	728.0
85.63	740.0
85.64	723.0
85.65	712.0
85.66	693.0
85.67	683.0
85.68	700.0
85.69	714.0
85.7	698.0
85.71	719.0
85.72	748.0
85.73	720.0
85.74	711.0
85.75	725.0
85.76	716.0
85.77	713.0
85.78	723.0
85.79	736.0
85.8	728.0
85.81	698.0
85.82	725.0
85.83	740.0
85.84	718.0
85.85	709.0
85.86	708.0
85.87	709.0
85.88	721.0
85.89	712.0
85.9	702.0
85.91	721.0
85.92	705.0
85.93	697.0
85.94	719.0
85.95	771.0
85.96	748.0
85.97	741.0
85.98	726.0
85.99	712.0
86.0	729.0
86.01	723.0
86.02	736.0
86.03	738.0
86.04	716.0
86.05	711.0
86.06	716.0
86.07	736.0
86.08	773.0
86.09	750.0
86.1	725.0
86.11	720.0
86.12	720.0
86.13	711.0
86.14	700.0
86.15	695.0
86.16	733.0
86.17	709.0
86.18	714.0
86.19	717.0
86.2	698.0
86.21	713.0
86.22	700.0
86.23	705.0
86.24	712.0
86.25	720.0
86.26	714.0
86.27	725.0
86.28	721.0
86.29	726.0
86.3	727.0
86.31	731.0
86.32	736.0
86.33	731.0
86.34	748.0
86.35	748.0
86.36	734.0
86.37	717.0
86.38	705.0
86.39	716.0
86.4	722.0
86.41	729.0
86.42	733.0
86.43	737.0
86.44	724.0
86.45	749.0
86.46	757.0
86.47	748.0
86.48	732.0
86.49	726.0
86.5	730.0
86.51	717.0
86.52	730.0
86.53	743.0
86.54	741.0
86.55	726.0
86.56	730.0
86.57	738.0
86.58	743.0
86.59	731.0
86.6	762.0
86.61	736.0
86.62	726.0
86.63	694.0
86.64	706.0
86.65	722.0
86.66	725.0
86.67	718.0
86.68	728.0
86.69	727.0
86.7	714.0
86.71	726.0
86.72	755.0
86.73	743.0
86.74	731.0
86.75	769.0
86.76	779.0
86.77	757.0
86.78	748.0
86.79	760.0
86.8	766.0
86.81	768.0
86.82	782.0
86.83	816.0
86.84	805.0
86.85	800.0
86.86	805.0
86.87	796.0
86.88	828.0
86.89	866.0
86.9	844.0
86.91	834.0
86.92	840.0
86.93	812.0
86.94	820.0
86.95	836.0
86.96	814.0
86.97	795.0
86.98	777.0
86.99	786.0
87.0	797.0
87.01	800.0
87.02	829.0
87.03	833.0
87.04	823.0
87.05	808.0
87.06	773.0
87.07	772.0
87.08	796.0
87.09	795.0
87.1	798.0
87.11	805.0
87.12	804.0
87.13	793.0
87.14	796.0
87.15	786.0
87.16	793.0
87.17	807.0
87.18	807.0
87.19	817.0
87.2	807.0
87.21	795.0
87.22	783.0
87.23	773.0
87.24	753.0
87.25	750.0
87.26	744.0
87.27	727.0
87.28	757.0
87.29	770.0
87.3	766.0
87.31	750.0
87.32	743.0
87.33	738.0
87.34	751.0
87.35	772.0
87.36	746.0
87.37	731.0
87.38	725.0
87.39	709.0
87.4	709.0
87.41	713.0
87.42	718.0
87.43	736.0
87.44	729.0
87.45	713.0
87.46	717.0
87.47	735.0
87.48	752.0
87.49	720.0
87.5	711.0
87.51	680.0
87.52	712.0
87.53	735.0
87.54	733.0
87.55	742.0
87.56	739.0
87.57	721.0
87.58	719.0
87.59	721.0
87.6	728.0
87.61	732.0
87.62	744.0
87.63	732.0
87.64	736.0
87.65	767.0
87.66	753.0
87.67	720.0
87.68	730.0
87.69	721.0
87.7	700.0
87.71	726.0
87.72	749.0
87.73	761.0
87.74	776.0
87.75	760.0
87.76	752.0
87.77	743.0
87.78	723.0
87.79	710.0
87.8	718.0
87.81	726.0
87.82	730.0
87.83	732.0
87.84	733.0
87.85	724.0
87.86	726.0
87.87	755.0
87.88	753.0
87.89	734.0
87.9	733.0
87.91	734.0
87.92	743.0
87.93	740.0
87.94	728.0
87.95	727.0
87.96	715.0
87.97	701.0
87.98	710.0
87.99	725.0
88.0	698.0
88.01	700.0
88.02	715.0
88.03	709.0
88.04	721.0
88.05	720.0
88.06	715.0
88.07	725.0
88.08	723.0
88.09	708.0
88.1	726.0
88.11	722.0
88.12	702.0
88.13	714.0
88.14	732.0
88.15	724.0
88.16	705.0
88.17	712.0
88.18	743.0
88.19	739.0
88.2	733.0
88.21	727.0
88.22	706.0
88.23	731.0
88.24	746.0
88.25	751.0
88.26	734.0
88.27	739.0
88.28	755.0
88.29	744.0
88.3	717.0
88.31	759.0
88.32	741.0
88.33	723.0
88.34	729.0
88.35	753.0
88.36	757.0
88.37	726.0
88.38	696.0
88.39	686.0
88.4	714.0
88.41	739.0
88.42	742.0
88.43	759.0
88.44	769.0
88.45	758.0
88.46	730.0
88.47	704.0
88.48	714.0
88.49	732.0
88.5	728.0
88.51	721.0
88.52	736.0
88.53	745.0
88.54	733.0
88.55	707.0
88.56	727.0
88.57	751.0
88.58	744.0
88.59	724.0
88.6	710.0
88.61	702.0
88.62	717.0
88.63	739.0
88.64	741.0
88.65	743.0
88.66	742.0
88.67	725.0
88.68	721.0
88.69	745.0
88.7	754.0
88.71	738.0
88.72	739.0
88.73	712.0
88.74	702.0
88.75	732.0
88.76	744.0
88.77	723.0
88.78	734.0
88.79	750.0
88.8	743.0
88.81	751.0
88.82	759.0
88.83	737.0
88.84	697.0
88.85	694.0
88.86	717.0
88.87	736.0
88.88	756.0
88.89	758.0
88.9	754.0
88.91	748.0
88.92	733.0
88.93	756.0
88.94	764.0
88.95	740.0
88.96	736.0
88.97	744.0
88.98	734.0
88.99	737.0
89.0	734.0
89.01	746.0
89.02	757.0
89.03	757.0
89.04	730.0
89.05	710.0
89.06	715.0
89.07	709.0
89.08	733.0
89.09	754.0
89.1	736.0
89.11	733.0
89.12	729.0
89.13	716.0
89.14	732.0
89.15	729.0
89.16	736.0
89.17	752.0
89.18	738.0
89.19	733.0
89.2	739.0
89.21	749.0
89.22	773.0
89.23	773.0
89.24	752.0
89.25	733.0
89.26	745.0
89.27	747.0
89.28	740.0
89.29	744.0
89.3	751.0
89.31	748.0
89.32	763.0
89.33	776.0
89.34	766.0
89.35	766.0
89.36	761.0
89.37	774.0
89.38	788.0
89.39	806.0
89.4	804.0
89.41	772.0
89.42	767.0
89.43	784.0
89.44	763.0
89.45	740.0
89.46	732.0
89.47	750.0
89.48	766.0
89.49	774.0
89.5	802.0
89.51	824.0
89.52	814.0
89.53	810.0
89.54	812.0
89.55	830.0
89.56	858.0
89.57	867.0
89.58	865.0
89.59	868.0
89.6	861.0
89.61	876.0
89.62	911.0
89.63	912.0
89.64	935.0
89.65	966.0
89.66	979.0
89.67	996.0
89.68	1036.0
89.69	1071.0
89.7	1122.0
89.71	1182.0
89.72	1211.0
89.73	1260.0
89.74	1326.0
89.75	1391.0
89.76	1456.0
89.77	1523.0
89.78	1560.0
89.79	1568.0
89.8	1540.0
89.81	1531.0
89.82	1580.0
89.83	1608.0
89.84	1564.0
89.85	1518.0
89.86	1490.0
89.87	1445.0
89.88	1391.0
89.89	1365.0
89.9	1364.0
89.91	1341.0
89.92	1297.0
89.93	1270.0
89.94	1240.0
89.95	1233.0
89.96	1249.0
89.97	1240.0
89.98	1201.0
89.99	1208.0
90.0	1221.0
90.01	1263.0
90.02	1302.0
90.03	1316.0
90.04	1294.0
90.05	1319.0
90.06	1335.0
90.07	1315.0
90.08	1333.0
90.09	1329.0
90.1	1318.0
90.11	1303.0
90.12	1273.0
90.13	1266.0
90.14	1256.0
90.15	1237.0
90.16	1215.0
90.17	1171.0
90.18	1144.0
90.19	1138.0
90.2	1101.0
90.21	1042.0
90.22	1036.0
90.23	1024.0
90.24	1007.0
90.25	1006.0
90.26	998.0
90.27	947.0
90.28	913.0
90.29	940.0
90.3	945.0
90.31	918.0
90.32	905.0
90.33	900.0
90.34	910.0
90.35	911.0
90.36	906.0
90.37	896.0
90.38	899.0
90.39	884.0
90.4	848.0
90.41	832.0
90.42	826.0
90.43	834.0
90.44	843.0
90.45	854.0
90.46	833.0
90.47	803.0
90.48	812.0
90.49	826.0
90.5	842.0
90.51	846.0
90.52	835.0
90.53	833.0
90.54	830.0
90.55	822.0
90.56	816.0
90.57	811.0
90.58	791.0
90.59	764.0
90.6	797.0
90.61	819.0
90.62	795.0
90.63	795.0
90.64	800.0
90.65	773.0
90.66	765.0
90.67	790.0
90.68	778.0
90.69	756.0
90.7	772.0
90.71	786.0
90.72	760.0
90.73	741.0
90.74	749.0
90.75	758.0
90.76	757.0
90.77	754.0
90.78	762.0
90.79	740.0
90.8	726.0
90.81	751.0
90.82	750.0
90.83	750.0
90.84	757.0
90.85	758.0
90.86	784.0
90.87	784.0
90.88	760.0
90.89	731.0
90.9	730.0
90.91	764.0
90.92	768.0
90.93	764.0
90.94	768.0
90.95	757.0
90.96	761.0
90.97	785.0
90.98	772.0
90.99	740.0
91.0	723.0
91.01	741.0
91.02	766.0
91.03	763.0
91.04	751.0
91.05	745.0
91.06	739.0
91.07	712.0
91.08	715.0
91.09	752.0
91.1	765.0
91.11	770.0
91.12	746.0
91.13	716.0
91.14	753.0
91.15	772.0
91.16	747.0
91.17	751.0
91.18	756.0
91.19	734.0
91.2	726.0
91.21	719.0
91.22	725.0
91.23	747.0
91.24	753.0
91.25	748.0
91.26	728.0
91.27	725.0
91.28	739.0
91.29	735.0
91.3	724.0
91.31	733.0
91.32	732.0
91.33	721.0
91.34	738.0
91.35	761.0
91.36	758.0
91.37	735.0
91.38	714.0
91.39	710.0
91.4	721.0
91.41	727.0
91.42	728.0
91.43	729.0
91.44	724.0
91.45	733.0
91.46	740.0
91.47	726.0
91.48	716.0
91.49	723.0
91.5	717.0
91.51	735.0
91.52	762.0
91.53	747.0
91.54	735.0
91.55	737.0
91.56	736.0
91.57	728.0
91.58	740.0
91.59	745.0
91.6	728.0
91.61	727.0
91.62	736.0
91.63	738.0
91.64	746.0
91.65	748.0
91.66	738.0
91.67	730.0
91.68	735.0
91.69	732.0
91.7	735.0
91.71	757.0
91.72	755.0
91.73	726.0
91.74	706.0
91.75	721.0
91.76	722.0
91.77	721.0
91.78	734.0
91.79	710.0
91.8	700.0
91.81	728.0
91.82	744.0
91.83	738.0
91.84	750.0
91.85	750.0
91.86	748.0
91.87	735.0
91.88	720.0
91.89	728.0
91.9	732.0
91.91	725.0
91.92	713.0
91.93	713.0
91.94	734.0
91.95	733.0
91.96	719.0
91.97	718.0
91.98	709.0
91.99	713.0
92.0	724.0
92.01	726.0
92.02	719.0
92.03	726.0
92.04	744.0
92.05	752.0
92.06	733.0
92.07	715.0
92.08	734.0
92.09	746.0
92.1	743.0
92.11	731.0
92.12	726.0
92.13	723.0
92.14	723.0
92.15	722.0
92.16	730.0
92.17	736.0
92.18	733.0
92.19	730.0
92.2	743.0
92.21	728.0
92.22	718.0
92.23	708.0
92.24	700.0
92.25	706.0
92.26	713.0
92.27	716.0
92.28	718.0
92.29	741.0
92.3	755.0
92.31	733.0
92.32	721.0
92.33	725.0
92.34	737.0
92.35	735.0
92.36	711.0
92.37	692.0
92.38	700.0
92.39	732.0
92.4	749.0
92.41	756.0
92.42	740.0
92.43	739.0
92.44	745.0
92.45	734.0
92.46	724.0
92.47	723.0
92.48	717.0
92.49	721.0
92.5	725.0
92.51	727.0
92.52	707.0
92.53	714.0
92.54	757.0
92.55	748.0
92.56	739.0
92.57	738.0
92.58	745.0
92.59	755.0
92.6	748.0
92.61	736.0
92.62	742.0
92.63	753.0
92.64	742.0
92.65	729.0
92.66	713.0
92.67	722.0
92.68	745.0
92.69	750.0
92.7	741.0
92.71	739.0
92.72	725.0
92.73	708.0
92.74	724.0
92.75	743.0
92.76	744.0
92.77	745.0
92.78	717.0
92.79	706.0
92.8	720.0
92.81	720.0
92.82	700.0
92.83	705.0
92.84	731.0
92.85	747.0
92.86	740.0
92.87	733.0
92.88	741.0
92.89	748.0
92.9	745.0
92.91	738.0
92.92	707.0
92.93	709.0
92.94	737.0
92.95	743.0
92.96	731.0
92.97	726.0
92.98	717.0
92.99	702.0
93.0	725.0
93.01	733.0
93.02	731.0
93.03	725.0
93.04	751.0
93.05	759.0
93.06	716.0
93.07	721.0
93.08	740.0
93.09	737.0
93.1	727.0
93.11	727.0
93.12	732.0
93.13	737.0
93.14	735.0
93.15	715.0
93.16	728.0
93.17	737.0
93.18	712.0
93.19	735.0
93.2	743.0
93.21	725.0
93.22	720.0
93.23	735.0
93.24	726.0
93.25	737.0
93.26	761.0
93.27	733.0
93.28	707.0
93.29	718.0
93.3	709.0
93.31	700.0
93.32	710.0
93.33	726.0
93.34	724.0
93.35	706.0
93.36	723.0
93.37	730.0
93.38	729.0
93.39	739.0
93.4	731.0
93.41	708.0
93.42	686.0
93.43	703.0
93.44	737.0
93.45	717.0
93.46	723.0
93.47	717.0
93.48	722.0
93.49	719.0
93.5	712.0
93.51	730.0
93.52	742.0
93.53	725.0
93.54	727.0
93.55	744.0
93.56	738.0
93.57	711.0
93.58	709.0
93.59	730.0
93.6	717.0
93.61	712.0
93.62	716.0
93.63	700.0
93.64	693.0
93.65	710.0
93.66	737.0
93.67	754.0
93.68	731.0
93.69	726.0
93.7	734.0
93.71	736.0
93.72	723.0
93.73	721.0
93.74	734.0
93.75	728.0
93.76	728.0
93.77	726.0
93.78	717.0
93.79	717.0
93.8	718.0
93.81	711.0
93.82	706.0
93.83	722.0
93.84	719.0
93.85	728.0
93.86	759.0
93.87	736.0
93.88	708.0
93.89	720.0
93.9	737.0
93.91	755.0
93.92	753.0
93.93	751.0
93.94	738.0
93.95	739.0
93.96	752.0
93.97	762.0
93.98	750.0
93.99	728.0
94.0	739.0
94.01	752.0
94.02	751.0
94.03	759.0
94.04	750.0
94.05	768.0
94.06	782.0
94.07	762.0
94.08	738.0
94.09	737.0
94.1	749.0
94.11	739.0
94.12	706.0
94.13	707.0
94.14	726.0
94.15	747.0
94.16	744.0
94.17	740.0
94.18	737.0
94.19	742.0
94.2	724.0
94.21	721.0
94.22	706.0
94.23	704.0
94.24	733.0
94.25	710.0
94.26	712.0
94.27	748.0
94.28	753.0
94.29	762.0
94.3	751.0
94.31	749.0
94.32	725.0
94.33	747.0
94.34	770.0
94.35	781.0
94.36	802.0
94.37	792.0
94.38	773.0
94.39	770.0
94.4	782.0
94.41	822.0
94.42	843.0
94.43	851.0
94.44	840.0
94.45	811.0
94.46	802.0
94.47	849.0
94.48	857.0
94.49	833.0
94.5	837.0
94.51	871.0
94.52	886.0
94.53	892.0
94.54	917.0
94.55	955.0
94.56	963.0
94.57	1004.0
94.58	1055.0
94.59	1038.0
94.6	1042.0
94.61	1075.0
94.62	1111.0
94.63	1112.0
94.64	1087.0
94.65	1059.0
94.66	1073.0
94.67	1088.0
94.68	1089.0
94.69	1087.0
94.7	1075.0
94.71	1031.0
94.72	1010.0
94.73	1010.0
94.74	1009.0
94.75	1018.0
94.76	1019.0
94.77	1006.0
94.78	954.0
94.79	925.0
94.8	952.0
94.81	978.0
94.82	983.0
94.83	960.0
94.84	935.0
94.85	942.0
94.86	968.0
94.87	1029.0
94.88	999.0
94.89	975.0
94.9	962.0
94.91	973.0
94.92	977.0
94.93	993.0
94.94	991.0
94.95	1010.0
94.96	991.0
94.97	1017.0
94.98	1011.0
94.99	986.0
95.0	957.0
95.01	927.0
95.02	931.0
95.03	941.0
95.04	953.0
95.05	938.0
95.06	912.0
95.07	911.0
95.08	892.0
95.09	894.0
95.1	893.0
95.11	867.0
95.12	870.0
95.13	851.0
95.14	836.0
95.15	842.0
95.16	866.0
95.17	857.0
95.18	848.0
95.19	851.0
95.2	837.0
95.21	827.0
95.22	814.0
95.23	796.0
95.24	784.0
95.25	791.0
95.26	798.0
95.27	797.0
95.28	799.0
95.29	775.0
95.3	774.0
95.31	766.0
95.32	758.0
95.33	738.0
95.34	795.0
95.35	812.0
95.36	766.0
95.37	768.0
95.38	751.0
95.39	769.0
95.4	787.0
95.41	782.0
95.42	728.0
95.43	733.0
95.44	766.0
95.45	772.0
95.46	771.0
95.47	757.0
95.48	766.0
95.49	770.0
95.5	761.0
95.51	729.0
95.52	708.0
95.53	740.0
95.54	749.0
95.55	775.0
95.56	775.0
95.57	773.0
95.58	754.0
95.59	770.0
95.6	773.0
95.61	736.0
95.62	728.0
95.63	746.0
95.64	733.0
95.65	734.0
95.66	756.0
95.67	765.0
95.68	763.0
95.69	765.0
95.7	739.0
95.71	734.0
95.72	758.0
95.73	747.0
95.74	734.0
95.75	729.0
95.76	725.0
95.77	721.0
95.78	720.0
95.79	744.0
95.8	753.0
95.81	741.0
95.82	731.0
95.83	725.0
95.84	745.0
95.85	718.0
95.86	716.0
95.87	730.0
95.88	740.0
95.89	727.0
95.9	735.0
95.91	720.0
95.92	728.0
95.93	752.0
95.94	765.0
95.95	730.0
95.96	720.0
95.97	746.0
95.98	741.0
95.99	744.0
96.0	728.0
96.01	708.0
96.02	703.0
96.03	732.0
96.04	713.0
96.05	709.0
96.06	727.0
96.07	738.0
96.08	723.0
96.09	727.0
96.1	703.0
96.11	700.0
96.12	715.0
96.13	724.0
96.14	723.0
96.15	714.0
96.16	719.0
96.17	702.0
96.18	730.0
96.19	736.0
96.2	723.0
96.21	728.0
96.22	710.0
96.23	744.0
96.24	717.0
96.25	696.0
96.26	713.0
96.27	754.0
96.28	744.0
96.29	743.0
96.3	734.0
96.31	752.0
96.32	736.0
96.33	734.0
96.34	738.0
96.35	731.0
96.36	733.0
96.37	758.0
96.38	756.0
96.39	733.0
96.4	728.0
96.41	741.0
96.42	717.0
96.43	721.0
96.44	716.0
96.45	714.0
96.46	690.0
96.47	713.0
96.48	732.0
96.49	734.0
96.5	719.0
96.51	715.0
96.52	721.0
96.53	725.0
96.54	745.0
96.55	754.0
96.56	763.0
96.57	733.0
96.58	729.0
96.59	748.0
96.6	748.0
96.61	719.0
96.62	719.0
96.63	715.0
96.64	703.0
96.65	694.0
96.66	718.0
96.67	732.0
96.68	723.0
96.69	721.0
96.7	701.0
96.71	705.0
96.72	744.0
96.73	745.0
96.74	709.0
96.75	703.0
96.76	713.0
96.77	730.0
96.78	728.0
96.79	755.0
96.8	749.0
96.81	744.0
96.82	748.0
96.83	746.0
96.84	756.0
96.85	725.0
96.86	714.0
96.87	716.0
96.88	702.0
96.89	715.0
96.9	729.0
96.91	735.0
96.92	726.0
96.93	726.0
96.94	746.0
96.95	740.0
96.96	718.0
96.97	721.0
96.98	740.0
96.99	711.0
97.0	698.0
97.01	730.0
97.02	746.0
97.03	716.0
97.04	760.0
97.05	759.0
97.06	748.0
97.07	734.0
97.08	725.0
97.09	675.0
97.1	704.0
97.11	716.0
97.12	739.0
97.13	728.0
97.14	699.0
97.15	694.0
97.16	731.0
97.17	713.0
97.18	715.0
97.19	722.0
97.2	726.0
97.21	733.0
97.22	738.0
97.23	746.0
97.24	710.0
97.25	721.0
97.26	734.0
97.27	756.0
97.28	732.0
97.29	721.0
97.3	741.0
97.31	764.0
97.32	731.0
97.33	723.0
97.34	720.0
97.35	709.0
97.36	736.0
97.37	763.0
97.38	752.0
97.39	742.0
97.4	749.0
97.41	725.0
97.42	748.0
97.43	752.0
97.44	724.0
97.45	722.0
97.46	741.0
97.47	715.0
97.48	701.0
97.49	709.0
97.5	708.0
97.51	707.0
97.52	716.0
97.53	718.0
97.54	709.0
97.55	697.0
97.56	689.0
97.57	704.0
97.58	714.0
97.59	732.0
97.6	711.0
97.61	698.0
97.62	718.0
97.63	745.0
97.64	718.0
97.65	733.0
97.66	753.0
97.67	721.0
97.68	706.0
97.69	717.0
97.7	743.0
97.71	725.0
97.72	696.0
97.73	704.0
97.74	732.0
97.75	722.0
97.76	704.0
97.77	711.0
97.78	687.0
97.79	719.0
97.8	726.0
97.81	724.0
97.82	741.0
97.83	745.0
97.84	736.0
97.85	693.0
97.86	682.0
97.87	700.0
97.88	750.0
97.89	720.0
97.9	697.0
97.91	714.0
97.92	756.0
97.93	713.0
97.94	710.0
97.95	741.0
97.96	694.0
97.97	654.0
97.98	697.0
97.99	705.0
98.0	723.0
98.01	716.0
98.02	689.0
98.03	699.0
98.04	705.0
98.05	719.0
98.06	699.0
98.07	743.0
98.08	725.0
98.09	738.0
98.1	745.0
98.11	736.0
98.12	707.0
98.13	734.0
98.14	724.0
98.15	729.0
98.16	720.0
98.17	741.0
98.18	742.0
98.19	721.0
98.2	724.0
98.21	719.0
98.22	726.0
98.23	717.0
98.24	747.0
98.25	730.0
98.26	697.0
98.27	702.0
98.28	701.0
98.29	717.0
98.3	744.0
98.31	755.0
98.32	729.0
98.33	709.0
98.34	714.0
98.35	731.0
98.36	732.0
98.37	740.0
98.38	731.0
98.39	697.0
98.4	696.0
98.41	692.0
98.42	696.0
98.43	701.0
98.44	697.0
98.45	685.0
98.46	714.0
98.47	700.0
98.48	725.0
98.49	715.0
98.5	719.0
98.51	717.0
98.52	713.0
98.53	713.0
98.54	741.0
98.55	733.0
98.56	714.0
98.57	692.0
98.58	727.0
98.59	754.0
98.6	748.0
98.61	706.0
98.62	699.0
98.63	684.0
98.64	741.0
98.65	739.0
98.66	713.0
98.67	707.0
98.68	712.0
98.69	695.0
98.7	708.0
98.71	735.0
98.72	719.0
98.73	701.0
98.74	705.0
98.75	704.0
98.76	727.0
98.77	744.0
98.78	750.0
98.79	700.0
98.8	684.0
98.81	721.0
98.82	727.0
98.83	725.0
98.84	730.0
98.85	725.0
98.86	727.0
98.87	712.0
98.88	690.0
98.89	728.0
98.9	750.0
98.91	682.0
98.92	708.0
98.93	710.0
98.94	710.0
98.95	715.0
98.96	694.0
98.97	697.0
98.98	735.0
98.99	739.0
99.0	718.0
99.01	690.0
99.02	686.0
99.03	725.0
99.04	733.0
99.05	713.0
99.06	699.0
99.07	721.0
99.08	717.0
99.09	719.0
99.1	733.0
99.11	750.0
99.12	708.0
99.13	746.0
99.14	743.0
99.15	722.0
99.16	714.0
99.17	695.0
99.18	715.0
99.19	706.0
99.2	713.0
99.21	690.0
99.22	714.0
99.23	707.0
99.24	713.0
99.25	716.0
99.26	706.0
99.27	704.0
99.28	715.0
99.29	707.0
99.3	704.0
99.31	702.0
99.32	665.0
99.33	711.0
99.34	738.0
99.35	715.0
99.36	737.0
99.37	705.0
99.38	682.0
99.39	709.0
99.4	730.0
99.41	734.0
99.42	711.0
99.43	706.0
99.44	711.0
99.45	724.0
99.46	706.0
99.47	712.0
99.48	714.0
99.49	719.0
99.5	722.0
99.51	742.0
99.52	746.0
99.53	716.0
99.54	699.0
99.55	690.0
99.56	708.0
99.57	720.0
99.58	702.0
99.59	717.0
99.6	695.0
99.61	705.0
99.62	736.0
99.63	739.0
99.64	717.0
99.65	687.0
99.66	678.0
99.67	707.0
99.68	713.0
99.69	690.0
99.7	722.0
99.71	716.0
99.72	726.0
99.73	735.0
99.74	738.0
99.75	725.0
99.76	713.0
99.77	715.0
99.78	701.0
99.79	726.0
99.8	752.0
99.81	758.0
99.82	723.0
99.83	685.0
99.84	702.0
99.85	729.0
99.86	735.0
99.87	737.0
99.88	725.0
99.89	702.0
99.9	706.0
99.91	718.0
99.92	744.0
99.93	758.0
99.94	730.0
99.95	685.0
99.96	699.0
99.97	721.0
99.98	709.0
99.99	716.0
100.0	776.0
