Multi_50%TiO2_50%MnF
Wavelength = 1.54059 Ã… (Cu)
Angle	I(o)	I(b)
10.0	1756.0	1756.0
10.01	1800.0	1800.0
10.02	1811.0	1811.0
10.03	1764.0	1764.0
10.04	1780.0	1769.2
10.05	1782.0	1772.9
10.06	1775.0	1774.3
10.07	1752.0	1772.7
10.08	1761.0	1774.2
10.09	1789.0	1772.3
10.1	1813.0	1766.7
10.11	1796.0	1768.1
10.12	1778.0	1778.7
10.13	1763.0	1783.2
10.14	1731.0	1781.1
10.15	1788.0	1775.1
10.16	1847.0	1770.8
10.17	1802.0	1772.3
10.18	1770.0	1777.0
10.19	1759.0	1786.8
10.2	1757.0	1786.3
10.21	1792.0	1775.6
10.22	1805.0	1773.2
10.23	1819.0	1774.9
10.24	1784.0	1784.8
10.25	1750.0	1794.3
10.26	1781.0	1800.0
10.27	1785.0	1799.3
10.28	1848.0	1795.7
10.29	1843.0	1797.2
10.3	1843.0	1807.1
10.31	1799.0	1811.9
10.32	1786.0	1814.7
10.33	1798.0	1810.1
10.34	1839.0	1806.1
10.35	1824.0	1803.6
10.36	1810.0	1807.8
10.37	1807.0	1807.9
10.38	1807.0	1804.9
10.39	1820.0	1803.0
10.4	1837.0	1802.1
10.41	1787.0	1800.0
10.42	1771.0	1808.6
10.43	1822.0	1816.0
10.44	1816.0	1814.2
10.45	1791.0	1808.7
10.46	1884.0	1810.0
10.47	1874.0	1817.4
10.48	1804.0	1821.9
10.49	1787.0	1825.1
10.5	1799.0	1826.4
10.51	1838.0	1819.0
10.52	1862.0	1811.2
10.53	1845.0	1817.0
10.54	1803.0	1822.6
10.55	1817.0	1823.9
10.56	1804.0	1822.0
10.57	1856.0	1818.4
10.58	1837.0	1818.4
10.59	1811.0	1822.6
10.6	1821.0	1823.0
10.61	1830.0	1824.2
10.62	1845.0	1822.1
10.63	1840.0	1829.6
10.64	1821.0	1832.3
10.65	1815.0	1832.8
10.66	1837.0	1836.6
10.67	1904.0	1835.8
10.68	1836.0	1836.4
10.69	1825.0	1842.9
10.7	1864.0	1855.0
10.71	1838.0	1860.3
10.72	1846.0	1852.3
10.73	1879.0	1856.9
10.74	1924.0	1859.2
10.75	1885.0	1856.7
10.76	1832.0	1854.6
10.77	1877.0	1851.7
10.78	1846.0	1852.6
10.79	1841.0	1848.3
10.8	1819.0	1847.2
10.81	1820.0	1851.6
10.82	1887.0	1846.9
10.83	1886.0	1852.7
10.84	1875.0	1856.2
10.85	1871.0	1858.4
10.86	1835.0	1862.9
10.87	1898.0	1864.4
10.88	1873.0	1867.8
10.89	1839.0	1873.2
10.9	1860.0	1873.1
10.91	1901.0	1874.1
10.92	1916.0	1873.9
10.93	1924.0	1874.3
10.94	1870.0	1872.9
10.95	1844.0	1874.3
10.96	1896.0	1877.7
10.97	1877.0	1876.0
10.98	1826.0	1872.6
10.99	1873.0	1875.7
11.0	1931.0	1880.9
11.01	1901.0	1877.1
11.02	1893.0	1873.9
11.03	1898.0	1878.3
11.04	1891.0	1884.8
11.05	1862.0	1881.2
11.06	1848.0	1882.7
11.07	1866.0	1878.8
11.08	1931.0	1875.4
11.09	1899.0	1875.1
11.1	1914.0	1880.4
11.11	1858.0	1891.2
11.12	1868.0	1894.8
11.13	1888.0	1884.0
11.14	1910.0	1889.3
11.15	1945.0	1894.1
11.16	1898.0	1904.8
11.17	1834.0	1916.6
11.18	1947.0	1910.1
11.19	1957.0	1910.5
11.2	1954.0	1910.8
11.21	1974.0	1911.1
11.22	1946.0	1911.5
11.23	1909.0	1911.8
11.24	1901.0	1912.2
11.25	1912.0	1912.5
11.26	1926.0	1912.9
11.27	1948.0	1913.2
11.28	1891.0	1913.6
11.29	1876.0	1913.9
11.3	1927.0	1914.3
11.31	1929.0	1914.6
11.32	1893.0	1915.0
11.33	1936.0	1915.3
11.34	1875.0	1915.6
11.35	1905.0	1916.0
11.36	1940.0	1916.3
11.37	1891.0	1916.7
11.38	1913.0	1917.0
11.39	1921.0	1917.4
11.4	1927.0	1917.7
11.41	1912.0	1918.1
11.42	1957.0	1918.4
11.43	1941.0	1918.8
11.44	1930.0	1919.1
11.45	1904.0	1919.4
11.46	1922.0	1919.8
11.47	1928.0	1920.1
11.48	1929.0	1920.5
11.49	1958.0	1920.8
11.5	1916.0	1921.2
11.51	1918.0	1921.5
11.52	1937.0	1921.9
11.53	1912.0	1922.2
11.54	1879.0	1922.5
11.55	1890.0	1922.9
11.56	1912.0	1923.2
11.57	1956.0	1923.6
11.58	1937.0	1923.9
11.59	1944.0	1924.3
11.6	1953.0	1924.6
11.61	1936.0	1924.9
11.62	1919.0	1925.3
11.63	1961.0	1925.6
11.64	1894.0	1926.0
11.65	1938.0	1926.3
11.66	1964.0	1926.6
11.67	1945.0	1927.0
11.68	1922.0	1927.3
11.69	1927.0	1927.7
11.7	1936.0	1928.0
11.71	1949.0	1928.3
11.72	1940.0	1928.7
11.73	1991.0	1929.0
11.74	1957.0	1929.3
11.75	1952.0	1929.7
11.76	1983.0	1930.0
11.77	1943.0	1930.4
11.78	1960.0	1930.7
11.79	1949.0	1931.0
11.8	1948.0	1931.4
11.81	1987.0	1931.7
11.82	1986.0	1932.0
11.83	1975.0	1932.4
11.84	1944.0	1932.7
11.85	1952.0	1933.0
11.86	1952.0	1933.4
11.87	1903.0	1933.7
11.88	1928.0	1934.0
11.89	1958.0	1934.4
11.9	1987.0	1934.7
11.91	1982.0	1935.0
11.92	1975.0	1935.4
11.93	1978.0	1935.7
11.94	1939.0	1936.0
11.95	1974.0	1936.4
11.96	1931.0	1936.7
11.97	1929.0	1937.0
11.98	1989.0	1937.3
11.99	1967.0	1937.7
12.0	1936.0	1938.0
12.01	1965.0	1938.3
12.02	1974.0	1938.6
12.03	1997.0	1939.0
12.04	2003.0	1939.3
12.05	2011.0	1939.6
12.06	2039.0	1940.0
12.07	2039.0	1940.3
12.08	1957.0	1940.6
12.09	1974.0	1940.9
12.1	1980.0	1941.2
12.11	2017.0	1941.6
12.12	2010.0	1941.9
12.13	1998.0	1942.2
12.14	1965.0	1942.5
12.15	1940.0	1942.8
12.16	1943.0	1943.2
12.17	1998.0	1943.5
12.18	1969.0	1943.8
12.19	1957.0	1944.1
12.2	1990.0	1944.4
12.21	1974.0	1944.8
12.22	2028.0	1945.1
12.23	1992.0	1945.4
12.24	2028.0	1945.7
12.25	2008.0	1946.0
12.26	2034.0	1946.3
12.27	2033.0	1946.6
12.28	2017.0	1947.0
12.29	2038.0	1947.3
12.3	2027.0	1947.6
12.31	2011.0	1947.9
12.32	1963.0	1948.2
12.33	2010.0	1948.5
12.34	2026.0	1948.8
12.35	1915.0	1949.1
12.36	1944.0	1949.4
12.37	1996.0	1949.7
12.38	1986.0	1950.0
12.39	1984.0	1950.3
12.4	1991.0	1950.6
12.41	2002.0	1950.9
12.42	1989.0	1951.3
12.43	1962.0	1951.6
12.44	2006.0	1951.9
12.45	2006.0	1952.2
12.46	2037.0	1952.5
12.47	2027.0	1952.8
12.48	2023.0	1953.1
12.49	2074.0	1953.4
12.5	2081.0	1953.6
12.51	2091.0	1953.9
12.52	2029.0	1954.2
12.53	1977.0	1954.5
12.54	2048.0	1954.8
12.55	2082.0	1955.1
12.56	2032.0	1955.4
12.57	1999.0	1955.7
12.58	2008.0	1956.0
12.59	2011.0	1956.3
12.6	2030.0	1956.6
12.61	2027.0	1956.9
12.62	2046.0	1957.2
12.63	2032.0	1957.4
12.64	2054.0	1957.7
12.65	2018.0	1958.0
12.66	2010.0	1958.3
12.67	1974.0	1958.6
12.68	2012.0	1958.9
12.69	2055.0	1959.1
12.7	1991.0	1959.4
12.71	1950.0	1959.7
12.72	1994.0	1960.0
12.73	2036.0	1960.3
12.74	2060.0	1960.5
12.75	2043.0	1960.8
12.76	2012.0	1961.1
12.77	1980.0	1961.4
12.78	2026.0	1961.6
12.79	2051.0	1961.9
12.8	2035.0	1962.2
12.81	2041.0	1962.4
12.82	2074.0	1962.7
12.83	2096.0	1963.0
12.84	2009.0	1963.3
12.85	2027.0	1963.5
12.86	2026.0	1963.8
12.87	1982.0	1964.1
12.88	2011.0	1964.3
12.89	2042.0	1964.6
12.9	2057.0	1964.8
12.91	2054.0	1965.1
12.92	2063.0	1965.4
12.93	2048.0	1965.6
12.94	2076.0	1965.9
12.95	2077.0	1966.1
12.96	2059.0	1966.4
12.97	2076.0	1966.7
12.98	2067.0	1966.9
12.99	1992.0	1967.2
13.0	1985.0	1967.4
13.01	2041.0	1967.7
13.02	2016.0	1967.9
13.03	2035.0	1968.2
13.04	2028.0	1968.4
13.05	2035.0	1968.7
13.06	2028.0	1968.9
13.07	2018.0	1969.1
13.08	2035.0	1969.4
13.09	2011.0	1969.6
13.1	1982.0	1969.9
13.11	2020.0	1970.1
13.12	2057.0	1970.4
13.13	2015.0	1970.6
13.14	2049.0	1970.8
13.15	2099.0	1971.1
13.16	2097.0	1971.3
13.17	2047.0	1971.5
13.18	2022.0	1971.8
13.19	2016.0	1972.0
13.2	2015.0	1972.2
13.21	2084.0	1972.5
13.22	2066.0	1972.7
13.23	2062.0	1972.9
13.24	2024.0	1973.1
13.25	2006.0	1973.4
13.26	2065.0	1973.6
13.27	2081.0	1973.8
13.28	2061.0	1974.0
13.29	2030.0	1974.3
13.3	2041.0	1974.5
13.31	2024.0	1974.7
13.32	2032.0	1974.9
13.33	2052.0	1975.1
13.34	2008.0	1975.3
13.35	2019.0	1975.5
13.36	2091.0	1975.8
13.37	2108.0	1976.0
13.38	2073.0	1976.2
13.39	2024.0	1976.4
13.4	2009.0	1976.6
13.41	2028.0	1976.8
13.42	2069.0	1977.0
13.43	2050.0	1977.2
13.44	2020.0	1977.4
13.45	1981.0	1977.6
13.46	1998.0	1977.8
13.47	2103.0	1978.0
13.48	2081.0	1978.2
13.49	2053.0	1978.4
13.5	2103.0	1978.6
13.51	2069.0	1978.8
13.52	2051.0	1979.0
13.53	2054.0	1979.2
13.54	2100.0	1979.3
13.55	2127.0	1979.5
13.56	2101.0	1979.7
13.57	2042.0	1979.9
13.58	2089.0	1980.1
13.59	2124.0	1980.3
13.6	2090.0	1980.4
13.61	2089.0	1980.6
13.62	2127.0	1980.8
13.63	2108.0	1981.0
13.64	2055.0	1981.2
13.65	2059.0	1981.3
13.66	2041.0	1981.5
13.67	2055.0	1981.7
13.68	2105.0	1981.8
13.69	2113.0	1982.0
13.7	2096.0	1982.2
13.71	2048.0	1982.3
13.72	2030.0	1982.5
13.73	2024.0	1982.7
13.74	2029.0	1982.8
13.75	2014.0	1983.0
13.76	1991.0	1983.1
13.77	2011.0	1983.3
13.78	2024.0	1983.4
13.79	2065.0	1983.6
13.8	2057.0	1983.7
13.81	2026.0	1983.9
13.82	2038.0	1984.0
13.83	2109.0	1984.2
13.84	2116.0	1984.3
13.85	2111.0	1984.5
13.86	2089.0	1984.6
13.87	2047.0	1984.8
13.88	2085.0	1984.9
13.89	2105.0	1985.0
13.9	2089.0	1985.2
13.91	2077.0	1985.3
13.92	2127.0	1985.4
13.93	2119.0	1985.6
13.94	2089.0	1985.7
13.95	2114.0	1985.8
13.96	2064.0	1986.0
13.97	2099.0	1986.1
13.98	2108.0	1986.2
13.99	2093.0	1986.3
14.0	2080.0	1986.5
14.01	2083.0	1986.6
14.02	2066.0	1986.7
14.03	2082.0	1986.8
14.04	2101.0	1986.9
14.05	2084.0	1987.0
14.06	2031.0	1987.1
14.07	2074.0	1987.2
14.08	2086.0	1987.4
14.09	2080.0	1987.5
14.1	2100.0	1987.6
14.11	2125.0	1987.7
14.12	2124.0	1987.8
14.13	2094.0	1987.9
14.14	2108.0	1988.0
14.15	2108.0	1988.1
14.16	2110.0	1988.2
14.17	2127.0	1988.2
14.18	2067.0	1988.3
14.19	2056.0	1988.4
14.2	2042.0	1988.5
14.21	2039.0	1988.6
14.22	2045.0	1988.7
14.23	2074.0	1988.8
14.24	2108.0	1988.8
14.25	2072.0	1988.9
14.26	2065.0	1989.0
14.27	2102.0	1989.1
14.28	2109.0	1989.1
14.29	2080.0	1989.2
14.3	2111.0	1989.3
14.31	2107.0	1989.4
14.32	2078.0	1989.4
14.33	2086.0	1989.5
14.34	2055.0	1989.6
14.35	2080.0	1989.6
14.36	2035.0	1989.7
14.37	2084.0	1989.7
14.38	2078.0	1989.8
14.39	2068.0	1989.8
14.4	2108.0	1989.9
14.41	2089.0	1989.9
14.42	2099.0	1990.0
14.43	2108.0	1990.0
14.44	2094.0	1990.1
14.45	2075.0	1990.1
14.46	2076.0	1990.2
14.47	2070.0	1990.2
14.48	2059.0	1990.2
14.49	2055.0	1990.3
14.5	2059.0	1990.3
14.51	2057.0	1990.3
14.52	2035.0	1990.4
14.53	2061.0	1990.4
14.54	2102.0	1990.4
14.55	2080.0	1990.4
14.56	2086.0	1990.5
14.57	2083.0	1990.5
14.58	2055.0	1990.5
14.59	2038.0	1990.5
14.6	2041.0	1990.5
14.61	2074.0	1990.5
14.62	2086.0	1990.6
14.63	2103.0	1990.6
14.64	2046.0	1990.6
14.65	2029.0	1990.6
14.66	2038.0	1990.6
14.67	2036.0	1990.6
14.68	2062.0	1990.6
14.69	2085.0	1990.6
14.7	2065.0	1990.6
14.71	2072.0	1990.6
14.72	2096.0	1990.5
14.73	2078.0	1990.5
14.74	2016.0	1990.5
14.75	2001.0	1990.5
14.76	2059.0	1990.5
14.77	2080.0	1990.5
14.78	2068.0	1990.4
14.79	2083.0	1990.4
14.8	2077.0	1990.4
14.81	2048.0	1990.4
14.82	2043.0	1990.3
14.83	2087.0	1990.3
14.84	2079.0	1990.3
14.85	2045.0	1990.2
14.86	2038.0	1990.2
14.87	2009.0	1990.2
14.88	1991.0	1990.1
14.89	2017.0	1990.1
14.9	2032.0	1990.0
14.91	2065.0	1990.0
14.92	2082.0	1989.9
14.93	2059.0	1989.9
14.94	2050.0	1989.8
14.95	2076.0	1989.8
14.96	2087.0	1989.7
14.97	2029.0	1989.6
14.98	2028.0	1989.6
14.99	2065.0	1989.5
15.0	2067.0	1989.4
15.01	2062.0	1989.4
15.02	2090.0	1989.3
15.03	2068.0	1989.2
15.04	2034.0	1989.1
15.05	2040.0	1989.1
15.06	2056.0	1989.0
15.07	2063.0	1988.9
15.08	2076.0	1988.8
15.09	2069.0	1988.7
15.1	2020.0	1988.6
15.11	1995.0	1988.5
15.12	2025.0	1988.4
15.13	2069.0	1988.3
15.14	2063.0	1988.2
15.15	2035.0	1988.1
15.16	2074.0	1988.0
15.17	2084.0	1987.9
15.18	2065.0	1987.8
15.19	2017.0	1987.7
15.2	2023.0	1987.6
15.21	2066.0	1987.5
15.22	2063.0	1987.4
15.23	2065.0	1987.3
15.24	2066.0	1987.1
15.25	2027.0	1987.0
15.26	2068.0	1986.9
15.27	2086.0	1986.8
15.28	2074.0	1986.6
15.29	2081.0	1986.5
15.3	2071.0	1986.4
15.31	2036.0	1986.2
15.32	2016.0	1986.1
15.33	2030.0	1985.9
15.34	2067.0	1985.8
15.35	2079.0	1985.6
15.36	2085.0	1985.5
15.37	2080.0	1985.3
15.38	2067.0	1985.2
15.39	2055.0	1985.0
15.4	2061.0	1984.9
15.41	2070.0	1984.7
15.42	2032.0	1984.5
15.43	2034.0	1984.4
15.44	2060.0	1984.2
15.45	2024.0	1984.0
15.46	2007.0	1983.9
15.47	2023.0	1983.7
15.48	2030.0	1983.5
15.49	2049.0	1983.3
15.5	2016.0	1983.1
15.51	1972.0	1982.9
15.52	2020.0	1982.8
15.53	2057.0	1982.6
15.54	2053.0	1982.4
15.55	2021.0	1982.2
15.56	2028.0	1982.0
15.57	2041.0	1981.8
15.58	2022.0	1981.6
15.59	2027.0	1981.4
15.6	2050.0	1981.2
15.61	2070.0	1981.0
15.62	2040.0	1980.7
15.63	2023.0	1980.5
15.64	2036.0	1980.3
15.65	2036.0	1980.1
15.66	2021.0	1979.9
15.67	2006.0	1979.6
15.68	1996.0	1979.4
15.69	2038.0	1979.2
15.7	2069.0	1978.9
15.71	2010.0	1978.7
15.72	1969.0	1978.5
15.73	2020.0	1978.2
15.74	2038.0	1978.0
15.75	1988.0	1977.7
15.76	1979.0	1977.5
15.77	1989.0	1977.2
15.78	2003.0	1977.0
15.79	2027.0	1976.7
15.8	2029.0	1976.5
15.81	1990.0	1976.2
15.82	1990.0	1975.9
15.83	2028.0	1975.7
15.84	2053.0	1975.4
15.85	2056.0	1975.1
15.86	1990.0	1974.8
15.87	1930.0	1974.6
15.88	1951.0	1974.3
15.89	1978.0	1974.0
15.9	1988.0	1973.7
15.91	2023.0	1973.4
15.92	2058.0	1973.1
15.93	2045.0	1972.8
15.94	2013.0	1972.5
15.95	1990.0	1972.2
15.96	1973.0	1971.9
15.97	1970.0	1971.6
15.98	2006.0	1971.3
15.99	2050.0	1971.0
16.0	2035.0	1970.7
16.01	2001.0	1970.4
16.02	1987.0	1970.1
16.03	2003.0	1969.7
16.04	2048.0	1969.4
16.05	2051.0	1969.1
16.06	2032.0	1968.8
16.07	2043.0	1968.4
16.08	2039.0	1968.1
16.09	1999.0	1967.8
16.1	2019.0	1967.4
16.11	2079.0	1967.1
16.12	2057.0	1966.7
16.13	2000.0	1966.4
16.14	2002.0	1966.1
16.15	2020.0	1965.7
16.16	2016.0	1965.3
16.17	2002.0	1965.0
16.18	1975.0	1964.6
16.19	1981.0	1964.3
16.2	1999.0	1963.9
16.21	1985.0	1963.5
16.22	1999.0	1963.2
16.23	2015.0	1962.8
16.24	1990.0	1962.4
16.25	2004.0	1962.1
16.26	2032.0	1961.7
16.27	2041.0	1961.3
16.28	2007.0	1960.9
16.29	2009.0	1960.5
16.3	2006.0	1960.1
16.31	1999.0	1959.7
16.32	1979.0	1959.4
16.33	1973.0	1959.0
16.34	1985.0	1958.6
16.35	2009.0	1958.2
16.36	1999.0	1957.8
16.37	1973.0	1957.3
16.38	1959.0	1956.9
16.39	1968.0	1956.5
16.4	2040.0	1956.1
16.41	2043.0	1955.7
16.42	1973.0	1955.3
16.43	1965.0	1954.9
16.44	1985.0	1954.4
16.45	1954.0	1954.0
16.46	1976.0	1953.6
16.47	1975.0	1953.2
16.48	1938.0	1952.7
16.49	1955.0	1952.3
16.5	1980.0	1951.9
16.51	1991.0	1951.4
16.52	1977.0	1951.0
16.53	1991.0	1950.5
16.54	1969.0	1950.1
16.55	1926.0	1949.6
16.56	1954.0	1949.2
16.57	1995.0	1948.7
16.58	2000.0	1948.3
16.59	1987.0	1947.8
16.6	1979.0	1947.4
16.61	1968.0	1946.9
16.62	1959.0	1946.4
16.63	1985.0	1946.0
16.64	2015.0	1945.5
16.65	2043.0	1945.0
16.66	2043.0	1944.6
16.67	1989.0	1944.1
16.68	1974.0	1943.6
16.69	1955.0	1943.1
16.7	1924.0	1942.7
16.71	1925.0	1942.2
16.72	1951.0	1941.7
16.73	1969.0	1941.2
16.74	1974.0	1940.7
16.75	2004.0	1940.2
16.76	2026.0	1939.7
16.77	1974.0	1939.2
16.78	1950.0	1938.7
16.79	1984.0	1938.2
16.8	1995.0	1937.7
16.81	1965.0	1937.2
16.82	1964.0	1936.7
16.83	1968.0	1936.2
16.84	1964.0	1935.7
16.85	1955.0	1935.2
16.86	1993.0	1934.6
16.87	2014.0	1934.1
16.88	1971.0	1933.6
16.89	1960.0	1933.1
16.9	1962.0	1932.6
16.91	1996.0	1932.0
16.92	2035.0	1931.5
16.93	2007.0	1931.0
16.94	1985.0	1930.4
16.95	1982.0	1929.9
16.96	1929.0	1929.4
16.97	1940.0	1928.8
16.98	1967.0	1928.3
16.99	1955.0	1927.7
17.0	1949.0	1927.2
17.01	1983.0	1926.6
17.02	2006.0	1926.1
17.03	1966.0	1925.5
17.04	1951.0	1925.0
17.05	1975.0	1924.4
17.06	1982.0	1923.9
17.07	1980.0	1923.3
17.08	1999.0	1922.7
17.09	1974.0	1922.2
17.1	1953.0	1921.6
17.11	1949.0	1921.0
17.12	1940.0	1920.5
17.13	1939.0	1919.9
17.14	1949.0	1919.3
17.15	1938.0	1918.7
17.16	1934.0	1918.2
17.17	1938.0	1917.6
17.18	1940.0	1917.0
17.19	1962.0	1916.4
17.2	1970.0	1915.8
17.21	1956.0	1915.2
17.22	1949.0	1914.6
17.23	1945.0	1914.1
17.24	1952.0	1913.5
17.25	1973.0	1912.9
17.26	1971.0	1912.3
17.27	1930.0	1911.7
17.28	1930.0	1911.1
17.29	1976.0	1910.5
17.3	1973.0	1909.8
17.31	1960.0	1909.2
17.32	1936.0	1908.6
17.33	1920.0	1908.0
17.34	1929.0	1907.4
17.35	1945.0	1906.8
17.36	1933.0	1906.2
17.37	1948.0	1905.6
17.38	1981.0	1904.9
17.39	1964.0	1904.3
17.4	1953.0	1903.7
17.41	1937.0	1903.1
17.42	1929.0	1902.4
17.43	1953.0	1901.8
17.44	1969.0	1901.2
17.45	1964.0	1900.5
17.46	1978.0	1899.9
17.47	1990.0	1899.3
17.48	1967.0	1898.6
17.49	1941.0	1898.0
17.5	1966.0	1897.3
17.51	1973.0	1896.7
17.52	1941.0	1896.0
17.53	1968.0	1895.4
17.54	2017.0	1894.7
17.55	1987.0	1894.1
17.56	1929.0	1893.4
17.57	1940.0	1892.8
17.58	1954.0	1892.1
17.59	1927.0	1891.5
17.6	1894.0	1890.8
17.61	1888.0	1890.1
17.62	1915.0	1889.5
17.63	1943.0	1888.8
17.64	1944.0	1888.1
17.65	1931.0	1887.5
17.66	1938.0	1886.8
17.67	1921.0	1886.1
17.68	1892.0	1885.4
17.69	1903.0	1884.8
17.7	1951.0	1884.1
17.71	1962.0	1883.4
17.72	1898.0	1882.7
17.73	1897.0	1882.0
17.74	1926.0	1881.3
17.75	1902.0	1880.7
17.76	1918.0	1880.0
17.77	1988.0	1879.3
17.78	1989.0	1878.6
17.79	1970.0	1877.9
17.8	1939.0	1877.2
17.81	1868.0	1876.5
17.82	1874.0	1875.8
17.83	1921.0	1875.1
17.84	1939.0	1874.4
17.85	1918.0	1873.7
17.86	1893.0	1873.0
17.87	1891.0	1872.3
17.88	1920.0	1871.6
17.89	1935.0	1870.9
17.9	1932.0	1870.1
17.91	1928.0	1869.4
17.92	1907.0	1868.7
17.93	1886.0	1868.0
17.94	1876.0	1867.3
17.95	1904.0	1866.6
17.96	1915.0	1865.8
17.97	1887.0	1865.1
17.98	1898.0	1864.4
17.99	1930.0	1863.7
18.0	1932.0	1862.9
18.01	1938.0	1862.2
18.02	1972.0	1861.5
18.03	1948.0	1860.7
18.04	1910.0	1860.0
18.05	1909.0	1859.3
18.06	1927.0	1858.5
18.07	1911.0	1857.8
18.08	1886.0	1857.1
18.09	1890.0	1856.3
18.1	1911.0	1855.6
18.11	1912.0	1854.8
18.12	1900.0	1854.1
18.13	1887.0	1853.3
18.14	1880.0	1852.6
18.15	1927.0	1851.8
18.16	1949.0	1851.1
18.17	1914.0	1850.3
18.18	1897.0	1849.6
18.19	1885.0	1848.8
18.2	1899.0	1848.1
18.21	1922.0	1847.3
18.22	1927.0	1846.5
18.23	1891.0	1845.8
18.24	1862.0	1845.0
18.25	1855.0	1844.3
18.26	1874.0	1843.5
18.27	1891.0	1842.7
18.28	1903.0	1842.0
18.29	1921.0	1841.2
18.3	1930.0	1840.4
18.31	1942.0	1839.6
18.32	1938.0	1838.9
18.33	1921.0	1838.1
18.34	1888.0	1837.3
18.35	1897.0	1836.5
18.36	1923.0	1835.7
18.37	1903.0	1835.0
18.38	1927.0	1834.2
18.39	1918.0	1833.4
18.4	1881.0	1832.6
18.41	1892.0	1831.8
18.42	1889.0	1831.0
18.43	1881.0	1830.2
18.44	1905.0	1829.5
18.45	1880.0	1828.7
18.46	1851.0	1827.9
18.47	1875.0	1827.1
18.48	1883.0	1826.3
18.49	1856.0	1825.5
18.5	1850.0	1824.7
18.51	1882.0	1823.9
18.52	1897.0	1823.1
18.53	1881.0	1822.3
18.54	1880.0	1821.5
18.55	1880.0	1820.7
18.56	1864.0	1819.9
18.57	1890.0	1819.1
18.58	1891.0	1818.2
18.59	1842.0	1817.4
18.6	1848.0	1816.6
18.61	1889.0	1815.8
18.62	1893.0	1815.0
18.63	1877.0	1814.2
18.64	1890.0	1813.4
18.65	1908.0	1812.6
18.66	1888.0	1811.7
18.67	1872.0	1810.9
18.68	1866.0	1810.1
18.69	1869.0	1809.3
18.7	1882.0	1808.4
18.71	1887.0	1807.6
18.72	1885.0	1806.8
18.73	1883.0	1806.0
18.74	1872.0	1805.1
18.75	1862.0	1804.3
18.76	1856.0	1803.5
18.77	1879.0	1802.6
18.78	1874.0	1801.8
18.79	1822.0	1801.0
18.8	1792.0	1800.1
18.81	1843.0	1799.3
18.82	1869.0	1798.5
18.83	1891.0	1797.6
18.84	1876.0	1796.8
18.85	1853.0	1796.0
18.86	1854.0	1795.1
18.87	1856.0	1794.3
18.88	1851.0	1793.4
18.89	1860.0	1792.6
18.9	1875.0	1791.7
18.91	1879.0	1790.9
18.92	1850.0	1790.0
18.93	1826.0	1789.2
18.94	1814.0	1788.3
18.95	1818.0	1787.5
18.96	1808.0	1786.6
18.97	1805.0	1785.8
18.98	1822.0	1784.9
18.99	1833.0	1784.1
19.0	1841.0	1783.2
19.01	1839.0	1782.4
19.02	1839.0	1781.5
19.03	1830.0	1780.6
19.04	1837.0	1779.8
19.05	1824.0	1778.9
19.06	1811.0	1778.1
19.07	1828.0	1777.2
19.08	1852.0	1776.3
19.09	1860.0	1775.5
19.1	1850.0	1774.6
19.11	1837.0	1773.7
19.12	1822.0	1772.9
19.13	1822.0	1772.0
19.14	1846.0	1771.1
19.15	1865.0	1770.2
19.16	1837.0	1769.4
19.17	1845.0	1768.5
19.18	1885.0	1767.6
19.19	1824.0	1766.7
19.2	1835.0	1765.9
19.21	1901.0	1765.0
19.22	1854.0	1764.1
19.23	1833.0	1763.2
19.24	1824.0	1762.4
19.25	1800.0	1761.5
19.26	1823.0	1760.6
19.27	1826.0	1759.7
19.28	1817.0	1758.8
19.29	1796.0	1757.9
19.3	1822.0	1757.1
19.31	1831.0	1756.2
19.32	1805.0	1755.3
19.33	1819.0	1754.4
19.34	1806.0	1753.5
19.35	1781.0	1752.6
19.36	1832.0	1751.7
19.37	1852.0	1750.8
19.38	1833.0	1749.9
19.39	1814.0	1749.1
19.4	1817.0	1748.2
19.41	1832.0	1747.3
19.42	1832.0	1746.4
19.43	1812.0	1745.5
19.44	1768.0	1744.6
19.45	1769.0	1743.7
19.46	1778.0	1742.8
19.47	1779.0	1741.9
19.48	1745.0	1741.0
19.49	1722.0	1740.1
19.5	1767.0	1739.2
19.51	1780.0	1738.3
19.52	1810.0	1737.4
19.53	1816.0	1736.5
19.54	1826.0	1735.6
19.55	1819.0	1734.7
19.56	1814.0	1733.8
19.57	1795.0	1732.9
19.58	1792.0	1731.9
19.59	1798.0	1731.0
19.6	1745.0	1730.1
19.61	1775.0	1729.2
19.62	1826.0	1728.3
19.63	1831.0	1727.4
19.64	1804.0	1726.5
19.65	1787.0	1725.6
19.66	1773.0	1724.7
19.67	1762.0	1723.7
19.68	1798.0	1722.8
19.69	1799.0	1721.9
19.7	1784.0	1721.0
19.71	1774.0	1720.1
19.72	1780.0	1719.2
19.73	1785.0	1718.3
19.74	1770.0	1717.3
19.75	1764.0	1716.4
19.76	1769.0	1715.5
19.77	1755.0	1714.6
19.78	1758.0	1713.7
19.79	1775.0	1712.7
19.8	1774.0	1711.8
19.81	1751.0	1710.9
19.82	1791.0	1710.0
19.83	1785.0	1709.0
19.84	1766.0	1708.1
19.85	1800.0	1707.2
19.86	1831.0	1706.3
19.87	1795.0	1705.3
19.88	1764.0	1704.4
19.89	1750.0	1703.5
19.9	1769.0	1702.6
19.91	1780.0	1701.6
19.92	1742.0	1700.7
19.93	1755.0	1699.8
19.94	1778.0	1698.8
19.95	1780.0	1697.9
19.96	1789.0	1697.0
19.97	1803.0	1696.0
19.98	1820.0	1695.1
19.99	1785.0	1694.2
20.0	1745.0	1693.3
20.01	1770.0	1692.3
20.02	1738.0	1691.4
20.03	1727.0	1690.4
20.04	1734.0	1689.5
20.05	1779.0	1688.6
20.06	1794.0	1687.6
20.07	1765.0	1686.7
20.08	1695.0	1685.8
20.09	1718.0	1684.8
20.1	1737.0	1683.9
20.11	1733.0	1683.0
20.12	1710.0	1682.0
20.13	1713.0	1681.1
20.14	1723.0	1680.1
20.15	1762.0	1679.2
20.16	1765.0	1678.3
20.17	1725.0	1677.3
20.18	1714.0	1676.4
20.19	1725.0	1675.4
20.2	1741.0	1674.5
20.21	1777.0	1673.5
20.22	1781.0	1672.6
20.23	1759.0	1671.7
20.24	1723.0	1670.7
20.25	1721.0	1669.8
20.26	1741.0	1668.8
20.27	1733.0	1667.9
20.28	1690.0	1666.9
20.29	1700.0	1666.0
20.3	1722.0	1665.0
20.31	1738.0	1664.1
20.32	1724.0	1663.2
20.33	1705.0	1662.2
20.34	1709.0	1661.3
20.35	1718.0	1660.3
20.36	1739.0	1659.4
20.37	1763.0	1658.4
20.38	1751.0	1657.5
20.39	1712.0	1656.5
20.4	1704.0	1655.6
20.41	1712.0	1654.6
20.42	1711.0	1653.7
20.43	1716.0	1652.7
20.44	1722.0	1651.8
20.45	1699.0	1650.8
20.46	1709.0	1649.9
20.47	1754.0	1648.9
20.48	1714.0	1648.0
20.49	1686.0	1647.0
20.5	1687.0	1646.1
20.51	1672.0	1645.1
20.52	1673.0	1644.2
20.53	1674.0	1643.2
20.54	1717.0	1642.3
20.55	1706.0	1641.3
20.56	1718.0	1640.4
20.57	1718.0	1639.4
20.58	1678.0	1638.4
20.59	1656.0	1637.5
20.6	1650.0	1636.5
20.61	1700.0	1635.6
20.62	1710.0	1634.6
20.63	1679.0	1633.7
20.64	1693.0	1632.7
20.65	1747.0	1631.8
20.66	1727.0	1630.8
20.67	1706.0	1629.9
20.68	1709.0	1628.9
20.69	1713.0	1628.0
20.7	1704.0	1627.0
20.71	1673.0	1626.0
20.72	1643.0	1625.1
20.73	1634.0	1624.1
20.74	1641.0	1623.2
20.75	1624.0	1622.2
20.76	1649.0	1621.3
20.77	1661.0	1620.3
20.78	1684.0	1619.3
20.79	1711.0	1618.4
20.8	1686.0	1617.4
20.81	1682.0	1616.5
20.82	1693.0	1615.5
20.83	1668.0	1614.6
20.84	1627.0	1613.6
20.85	1635.0	1612.7
20.86	1693.0	1611.7
20.87	1715.0	1610.7
20.88	1698.0	1609.8
20.89	1672.0	1608.8
20.9	1672.0	1607.9
20.91	1635.0	1606.9
20.92	1613.0	1606.0
20.93	1639.0	1605.0
20.94	1649.0	1604.0
20.95	1650.0	1603.1
20.96	1654.0	1602.1
20.97	1669.0	1601.2
20.98	1690.0	1600.2
20.99	1675.0	1599.3
21.0	1639.0	1598.3
21.01	1662.0	1597.3
21.02	1677.0	1596.4
21.03	1664.0	1595.4
21.04	1635.0	1594.5
21.05	1651.0	1593.5
21.06	1709.0	1592.6
21.07	1708.0	1591.6
21.08	1667.0	1590.6
21.09	1659.0	1589.7
21.1	1661.0	1588.7
21.11	1685.0	1587.8
21.12	1626.0	1586.8
21.13	1652.0	1585.9
21.14	1651.0	1584.9
21.15	1689.0	1583.9
21.16	1672.0	1583.0
21.17	1639.0	1582.0
21.18	1632.0	1581.1
21.19	1634.0	1580.1
21.2	1614.0	1579.2
21.21	1593.0	1578.2
21.22	1641.0	1577.3
21.23	1676.0	1576.3
21.24	1697.0	1575.4
21.25	1665.0	1574.4
21.26	1617.0	1573.4
21.27	1601.0	1572.5
21.28	1594.0	1571.5
21.29	1628.0	1570.6
21.3	1660.0	1569.6
21.31	1605.0	1568.7
21.32	1591.0	1567.7
21.33	1617.0	1566.8
21.34	1612.0	1565.8
21.35	1627.0	1564.9
21.36	1657.0	1563.9
21.37	1659.0	1563.0
21.38	1658.0	1562.0
21.39	1634.0	1561.0
21.4	1638.0	1560.1
21.41	1636.0	1559.1
21.42	1607.0	1558.2
21.43	1582.0	1557.2
21.44	1595.0	1556.3
21.45	1620.0	1555.3
21.46	1604.0	1554.4
21.47	1625.0	1553.4
21.48	1615.0	1552.5
21.49	1607.0	1551.5
21.5	1638.0	1550.6
21.51	1625.0	1549.6
21.52	1629.0	1548.7
21.53	1645.0	1547.7
21.54	1641.0	1546.8
21.55	1603.0	1545.8
21.56	1573.0	1544.9
21.57	1611.0	1544.0
21.58	1630.0	1543.0
21.59	1584.0	1542.1
21.6	1620.0	1541.1
21.61	1633.0	1540.2
21.62	1585.0	1539.2
21.63	1574.0	1538.3
21.64	1593.0	1537.3
21.65	1595.0	1536.4
21.66	1628.0	1535.4
21.67	1635.0	1534.5
21.68	1640.0	1533.6
21.69	1662.0	1532.6
21.7	1695.0	1531.7
21.71	1643.0	1530.7
21.72	1636.0	1529.8
21.73	1577.0	1528.8
21.74	1565.0	1527.9
21.75	1541.0	1527.0
21.76	1562.0	1526.0
21.77	1604.0	1525.1
21.78	1595.0	1524.1
21.79	1603.0	1523.2
21.8	1611.0	1522.3
21.81	1570.0	1521.3
21.82	1532.0	1520.4
21.83	1546.0	1519.5
21.84	1572.0	1518.5
21.85	1582.0	1517.6
21.86	1594.0	1516.7
21.87	1589.0	1515.7
21.88	1572.0	1514.8
21.89	1528.0	1513.8
21.9	1539.0	1512.9
21.91	1549.0	1512.0
21.92	1581.0	1511.0
21.93	1557.0	1510.1
21.94	1526.0	1509.2
21.95	1553.0	1508.3
21.96	1531.0	1507.3
21.97	1588.0	1506.4
21.98	1542.0	1505.5
21.99	1606.0	1504.5
22.0	1573.0	1503.6
22.01	1530.0	1502.7
22.02	1510.0	1501.7
22.03	1591.0	1500.8
22.04	1585.0	1499.9
22.05	1553.0	1499.0
22.06	1565.0	1498.0
22.07	1557.0	1497.1
22.08	1571.0	1496.2
22.09	1569.0	1495.3
22.1	1589.0	1494.4
22.11	1546.0	1493.4
22.12	1549.0	1492.5
22.13	1567.0	1491.6
22.14	1510.0	1490.7
22.15	1475.0	1489.7
22.16	1481.0	1488.8
22.17	1511.0	1487.9
22.18	1557.0	1487.0
22.19	1565.0	1486.1
22.2	1573.0	1485.2
22.21	1523.0	1484.2
22.22	1527.0	1483.3
22.23	1525.0	1482.4
22.24	1508.0	1481.5
22.25	1512.0	1480.6
22.26	1500.0	1479.7
22.27	1517.0	1478.8
22.28	1490.0	1477.9
22.29	1487.0	1476.9
22.3	1513.0	1476.0
22.31	1531.0	1475.1
22.32	1486.0	1474.2
22.33	1479.0	1473.3
22.34	1514.0	1472.4
22.35	1552.0	1471.5
22.36	1517.0	1470.6
22.37	1526.0	1469.7
22.38	1545.0	1468.8
22.39	1475.0	1467.9
22.4	1530.0	1467.0
22.41	1561.0	1466.1
22.42	1544.0	1465.2
22.43	1558.0	1464.3
22.44	1520.0	1463.4
22.45	1488.0	1462.5
22.46	1466.0	1461.6
22.47	1478.0	1460.7
22.48	1485.0	1459.8
22.49	1527.0	1458.9
22.5	1516.0	1458.0
22.51	1506.0	1457.1
22.52	1509.0	1456.2
22.53	1513.0	1455.3
22.54	1546.0	1454.4
22.55	1511.0	1453.5
22.56	1487.0	1452.6
22.57	1506.0	1451.8
22.58	1522.0	1450.9
22.59	1464.0	1450.0
22.6	1479.0	1449.1
22.61	1518.0	1448.2
22.62	1500.0	1447.3
22.63	1500.0	1446.4
22.64	1493.0	1445.6
22.65	1501.0	1444.7
22.66	1517.0	1443.8
22.67	1455.0	1442.9
22.68	1450.0	1442.0
22.69	1428.0	1441.2
22.7	1442.0	1440.3
22.71	1463.0	1439.4
22.72	1478.0	1438.5
22.73	1479.0	1437.7
22.74	1454.0	1436.8
22.75	1500.0	1435.9
22.76	1509.0	1435.0
22.77	1475.0	1434.2
22.78	1509.0	1433.3
22.79	1501.0	1432.4
22.8	1475.0	1431.6
22.81	1476.0	1430.7
22.82	1485.0	1429.8
22.83	1490.0	1429.0
22.84	1567.0	1428.1
22.85	1505.0	1427.2
22.86	1508.0	1426.4
22.87	1496.0	1425.5
22.88	1474.0	1424.6
22.89	1498.0	1423.8
22.9	1488.0	1422.9
22.91	1479.0	1422.1
22.92	1474.0	1421.2
22.93	1516.0	1420.4
22.94	1522.0	1419.5
22.95	1502.0	1418.6
22.96	1477.0	1417.8
22.97	1474.0	1416.9
22.98	1456.0	1416.1
22.99	1454.0	1415.2
23.0	1474.0	1414.4
23.01	1472.0	1413.5
23.02	1458.0	1412.7
23.03	1450.0	1411.8
23.04	1440.0	1411.0
23.05	1481.0	1410.1
23.06	1457.0	1409.3
23.07	1465.0	1408.5
23.08	1464.0	1407.6
23.09	1449.0	1406.8
23.1	1445.0	1405.9
23.11	1428.0	1405.1
23.12	1427.0	1404.3
23.13	1458.0	1403.4
23.14	1484.0	1402.6
23.15	1432.0	1401.7
23.16	1488.0	1400.9
23.17	1516.0	1400.1
23.18	1499.0	1399.2
23.19	1497.0	1398.4
23.2	1463.0	1397.6
23.21	1483.0	1396.7
23.22	1475.0	1395.9
23.23	1465.0	1395.1
23.24	1431.0	1394.2
23.25	1471.0	1393.4
23.26	1468.0	1392.6
23.27	1464.0	1391.8
23.28	1419.0	1390.9
23.29	1437.0	1390.1
23.3	1425.0	1389.3
23.31	1466.0	1388.5
23.32	1472.0	1387.6
23.33	1478.0	1386.8
23.34	1457.0	1386.0
23.35	1483.0	1385.2
23.36	1491.0	1384.4
23.37	1414.0	1383.6
23.38	1417.0	1382.7
23.39	1475.0	1381.9
23.4	1511.0	1381.1
23.41	1471.0	1380.3
23.42	1497.0	1379.5
23.43	1447.0	1378.7
23.44	1423.0	1377.9
23.45	1415.0	1377.0
23.46	1450.0	1376.2
23.47	1478.0	1375.4
23.48	1427.0	1374.6
23.49	1450.0	1373.8
23.5	1420.0	1373.0
23.51	1434.0	1372.2
23.52	1460.0	1371.4
23.53	1475.0	1370.6
23.54	1445.0	1369.8
23.55	1466.0	1369.0
23.56	1474.0	1368.2
23.57	1417.0	1367.4
23.58	1394.0	1366.6
23.59	1453.0	1365.8
23.6	1430.0	1365.0
23.61	1446.0	1364.2
23.62	1496.0	1363.4
23.63	1448.0	1362.6
23.64	1417.0	1361.8
23.65	1447.0	1361.0
23.66	1428.0	1360.2
23.67	1421.0	1359.4
23.68	1446.0	1358.6
23.69	1457.0	1357.8
23.7	1418.0	1357.0
23.71	1432.0	1356.3
23.72	1400.0	1355.5
23.73	1448.0	1354.7
23.74	1462.0	1353.9
23.75	1455.0	1353.1
23.76	1461.0	1352.3
23.77	1474.0	1351.5
23.78	1449.0	1350.8
23.79	1430.0	1350.0
23.8	1439.0	1349.2
23.81	1464.0	1348.4
23.82	1455.0	1347.6
23.83	1466.0	1346.9
23.84	1471.0	1346.1
23.85	1475.0	1345.3
23.86	1429.0	1344.5
23.87	1440.0	1343.8
23.88	1421.0	1343.0
23.89	1427.0	1342.2
23.9	1439.0	1341.4
23.91	1427.0	1340.7
23.92	1402.0	1339.9
23.93	1418.0	1339.1
23.94	1457.0	1338.3
23.95	1459.0	1337.6
23.96	1419.0	1336.8
23.97	1450.0	1336.0
23.98	1446.0	1335.3
23.99	1418.0	1334.5
24.0	1399.0	1333.7
24.01	1427.0	1333.0
24.02	1455.0	1332.2
24.03	1430.0	1331.5
24.04	1389.0	1330.7
24.05	1406.0	1329.9
24.06	1428.0	1329.2
24.07	1406.0	1328.4
24.08	1457.0	1327.7
24.09	1475.0	1326.9
24.1	1421.0	1326.1
24.11	1429.0	1325.4
24.12	1456.0	1324.6
24.13	1424.0	1323.9
24.14	1432.0	1323.1
24.15	1392.0	1322.4
24.16	1391.0	1321.6
24.17	1394.0	1320.9
24.18	1448.0	1320.1
24.19	1477.0	1319.4
24.2	1458.0	1318.6
24.21	1453.0	1317.9
24.22	1449.0	1317.1
24.23	1431.0	1316.4
24.24	1442.0	1315.6
24.25	1441.0	1314.9
24.26	1427.0	1314.1
24.27	1425.0	1313.4
24.28	1459.0	1312.7
24.29	1422.0	1311.9
24.3	1427.0	1311.2
24.31	1420.0	1310.4
24.32	1415.0	1309.7
24.33	1430.0	1309.0
24.34	1481.0	1308.2
24.35	1442.0	1307.5
24.36	1456.0	1306.8
24.37	1466.0	1306.0
24.38	1461.0	1305.3
24.39	1442.0	1304.6
24.4	1423.0	1303.8
24.41	1418.0	1303.1
24.42	1428.0	1302.4
24.43	1464.0	1301.6
24.44	1512.0	1300.9
24.45	1519.0	1300.2
24.46	1485.0	1299.4
24.47	1481.0	1298.7
24.48	1508.0	1298.0
24.49	1504.0	1297.3
24.5	1457.0	1296.5
24.51	1440.0	1295.8
24.52	1471.0	1295.1
24.53	1464.0	1294.4
24.54	1492.0	1293.6
24.55	1528.0	1292.9
24.56	1515.0	1292.2
24.57	1543.0	1291.5
24.58	1572.0	1290.8
24.59	1532.0	1290.1
24.6	1495.0	1289.3
24.61	1547.0	1288.6
24.62	1586.0	1287.9
24.63	1577.0	1287.2
24.64	1548.0	1286.5
24.65	1556.0	1285.8
24.66	1572.0	1285.0
24.67	1591.0	1284.3
24.68	1611.0	1283.6
24.69	1642.0	1282.9
24.7	1637.0	1282.2
24.71	1608.0	1281.5
24.72	1647.0	1280.8
24.73	1665.0	1280.1
24.74	1640.0	1279.4
24.75	1654.0	1278.7
24.76	1653.0	1278.0
24.77	1712.0	1277.3
24.78	1713.0	1276.6
24.79	1693.0	1275.9
24.8	1721.0	1275.2
24.81	1753.0	1274.5
24.82	1794.0	1273.8
24.83	1829.0	1273.1
24.84	1813.0	1272.4
24.85	1811.0	1271.7
24.86	1839.0	1271.0
24.87	1851.0	1270.3
24.88	1840.0	1269.6
24.89	1859.0	1268.9
24.9	1863.0	1268.2
24.91	1877.0	1267.5
24.92	1968.0	1266.8
24.93	2007.0	1266.1
24.94	2012.0	1265.4
24.95	2043.0	1264.7
24.96	2102.0	1264.0
24.97	2134.0	1263.3
24.98	2141.0	1262.7
24.99	2160.0	1262.0
25.0	2203.0	1261.3
25.01	2260.0	1260.6
25.02	2271.0	1259.9
25.03	2295.0	1259.2
25.04	2339.0	1258.5
25.05	2384.0	1257.9
25.06	2434.0	1257.2
25.07	2471.0	1256.5
25.08	2545.0	1255.8
25.09	2544.0	1255.1
25.1	2580.0	1254.5
25.11	2666.0	1253.8
25.12	2703.0	1253.1
25.13	2695.0	1252.4
25.14	2763.0	1251.8
25.15	2828.0	1251.1
25.16	2826.0	1250.4
25.17	2823.0	1249.7
25.18	2897.0	1249.1
25.19	2985.0	1248.4
25.2	3020.0	1247.7
25.21	2984.0	1247.0
25.22	3001.0	1246.4
25.23	3062.0	1245.7
25.24	3025.0	1245.0
25.25	3024.0	1244.4
25.26	3074.0	1243.7
25.27	3091.0	1243.0
25.28	3118.0	1242.4
25.29	3116.0	1241.7
25.3	3101.0	1241.0
25.31	3071.0	1240.4
25.32	3043.0	1239.7
25.33	3059.0	1239.0
25.34	3075.0	1238.4
25.35	3070.0	1237.7
25.36	3010.0	1237.1
25.37	2964.0	1236.4
25.38	2960.0	1235.7
25.39	2946.0	1235.1
25.4	2899.0	1234.4
25.41	2873.0	1233.8
25.42	2852.0	1233.1
25.43	2836.0	1232.5
25.44	2785.0	1231.8
25.45	2709.0	1231.2
25.46	2712.0	1230.5
25.47	2698.0	1229.9
25.48	2631.0	1229.2
25.49	2629.0	1228.6
25.5	2599.0	1227.9
25.51	2578.0	1227.3
25.52	2572.0	1226.6
25.53	2567.0	1226.0
25.54	2551.0	1225.3
25.55	2501.0	1224.7
25.56	2514.0	1224.0
25.57	2581.0	1223.4
25.58	2587.0	1222.7
25.59	2614.0	1222.1
25.6	2605.0	1221.4
25.61	2670.0	1220.8
25.62	2770.0	1220.2
25.63	2836.0	1219.5
25.64	2909.0	1218.9
25.65	2989.0	1218.2
25.66	3053.0	1217.6
25.67	3195.0	1217.0
25.68	3405.0	1216.3
25.69	3569.0	1215.7
25.7	3743.0	1215.0
25.71	3939.0	1214.4
25.72	4133.0	1213.8
25.73	4346.0	1213.1
25.74	4574.0	1212.5
25.75	4757.0	1211.9
25.76	4836.0	1211.2
25.77	4876.0	1210.6
25.78	4960.0	1210.0
25.79	5005.0	1209.4
25.8	4921.0	1208.7
25.81	4747.0	1208.1
25.82	4631.0	1207.5
25.83	4427.0	1206.8
25.84	4262.0	1206.2
25.85	4096.0	1205.6
25.86	3829.0	1205.0
25.87	3575.0	1204.3
25.88	3320.0	1203.7
25.89	3065.0	1203.1
25.9	2901.0	1202.5
25.91	2754.0	1201.9
25.92	2599.0	1201.2
25.93	2422.0	1200.6
25.94	2278.0	1200.0
25.95	2179.0	1199.4
25.96	2085.0	1198.8
25.97	2050.0	1198.1
25.98	2006.0	1197.5
25.99	1912.0	1196.9
26.0	1873.0	1196.3
26.01	1838.0	1195.7
26.02	1770.0	1195.1
26.03	1711.0	1194.4
26.04	1712.0	1193.8
26.05	1741.0	1193.2
26.06	1708.0	1192.6
26.07	1634.0	1192.0
26.08	1614.0	1191.4
26.09	1624.0	1190.8
26.1	1625.0	1190.2
26.11	1581.0	1189.6
26.12	1536.0	1189.0
26.13	1536.0	1188.4
26.14	1536.0	1187.7
26.15	1519.0	1187.1
26.16	1499.0	1186.5
26.17	1480.0	1185.9
26.18	1486.0	1185.3
26.19	1486.0	1184.7
26.2	1468.0	1184.1
26.21	1432.0	1183.5
26.22	1435.0	1182.9
26.23	1410.0	1182.3
26.24	1398.0	1181.7
26.25	1427.0	1181.1
26.26	1424.0	1180.5
26.27	1412.0	1179.9
26.28	1423.0	1179.3
26.29	1432.0	1178.7
26.3	1440.0	1178.1
26.31	1427.0	1177.5
26.32	1406.0	1176.9
26.33	1410.0	1176.4
26.34	1420.0	1175.8
26.35	1370.0	1175.2
26.36	1322.0	1174.6
26.37	1345.0	1174.0
26.38	1353.0	1173.4
26.39	1348.0	1172.8
26.4	1343.0	1172.2
26.41	1347.0	1171.6
26.42	1364.0	1171.0
26.43	1349.0	1170.5
26.44	1311.0	1169.9
26.45	1324.0	1169.3
26.46	1335.0	1168.7
26.47	1323.0	1168.1
26.48	1300.0	1167.5
26.49	1333.0	1166.9
26.5	1356.0	1166.4
26.51	1342.0	1165.8
26.52	1328.0	1165.2
26.53	1318.0	1164.6
26.54	1304.0	1164.0
26.55	1310.0	1163.5
26.56	1341.0	1162.9
26.57	1362.0	1162.3
26.58	1339.0	1161.7
26.59	1324.0	1161.1
26.6	1328.0	1160.6
26.61	1325.0	1160.0
26.62	1311.0	1159.4
26.63	1295.0	1158.8
26.64	1282.0	1158.3
26.65	1275.0	1157.7
26.66	1283.0	1157.1
26.67	1291.0	1156.6
26.68	1285.0	1156.0
26.69	1280.0	1155.4
26.7	1278.0	1154.8
26.71	1294.0	1154.3
26.72	1319.0	1153.7
26.73	1328.0	1153.1
26.74	1315.0	1152.6
26.75	1287.0	1152.0
26.76	1291.0	1151.4
26.77	1305.0	1150.9
26.78	1300.0	1150.3
26.79	1281.0	1149.7
26.8	1278.0	1149.2
26.81	1318.0	1148.6
26.82	1316.0	1148.1
26.83	1258.0	1147.5
26.84	1204.0	1146.9
26.85	1213.0	1146.4
26.86	1248.0	1145.8
26.87	1274.0	1145.3
26.88	1301.0	1144.7
26.89	1305.0	1144.1
26.9	1301.0	1143.6
26.91	1298.0	1143.0
26.92	1272.0	1142.5
26.93	1255.0	1141.9
26.94	1255.0	1141.4
26.95	1258.0	1140.8
26.96	1256.0	1140.2
26.97	1286.0	1139.7
26.98	1310.0	1139.1
26.99	1286.0	1138.6
27.0	1274.0	1138.0
27.01	1269.0	1137.5
27.02	1285.0	1136.9
27.03	1310.0	1136.4
27.04	1302.0	1135.8
27.05	1269.0	1135.3
27.06	1264.0	1134.7
27.07	1283.0	1134.2
27.08	1268.0	1133.6
27.09	1253.0	1133.1
27.1	1244.0	1132.6
27.11	1238.0	1132.0
27.12	1267.0	1131.5
27.13	1274.0	1130.9
27.14	1255.0	1130.4
27.15	1254.0	1129.8
27.16	1287.0	1129.3
27.17	1328.0	1128.7
27.18	1295.0	1128.2
27.19	1242.0	1127.7
27.2	1238.0	1127.1
27.21	1267.0	1126.6
27.22	1293.0	1126.1
27.23	1300.0	1125.5
27.24	1261.0	1125.0
27.25	1239.0	1124.4
27.26	1262.0	1123.9
27.27	1253.0	1123.4
27.28	1221.0	1122.8
27.29	1234.0	1122.3
27.3	1250.0	1121.8
27.31	1235.0	1121.2
27.32	1259.0	1120.7
27.33	1279.0	1120.2
27.34	1262.0	1119.6
27.35	1260.0	1119.1
27.36	1249.0	1118.6
27.37	1218.0	1118.0
27.38	1230.0	1117.5
27.39	1248.0	1117.0
27.4	1239.0	1116.5
27.41	1233.0	1115.9
27.42	1220.0	1115.4
27.43	1182.0	1114.9
27.44	1217.0	1114.4
27.45	1279.0	1113.8
27.46	1265.0	1113.3
27.47	1247.0	1112.8
27.48	1256.0	1112.3
27.49	1252.0	1111.7
27.5	1242.0	1111.2
27.51	1238.0	1110.7
27.52	1245.0	1110.2
27.53	1272.0	1109.6
27.54	1270.0	1109.1
27.55	1246.0	1108.6
27.56	1231.0	1108.1
27.57	1228.0	1107.6
27.58	1230.0	1107.1
27.59	1252.0	1106.5
27.6	1245.0	1106.0
27.61	1201.0	1105.5
27.62	1196.0	1105.0
27.63	1204.0	1104.5
27.64	1176.0	1104.0
27.65	1166.0	1103.4
27.66	1173.0	1102.9
27.67	1181.0	1102.4
27.68	1193.0	1101.9
27.69	1202.0	1101.4
27.7	1191.0	1100.9
27.71	1197.0	1100.4
27.72	1194.0	1099.9
27.73	1217.0	1099.4
27.74	1245.0	1098.8
27.75	1206.0	1098.3
27.76	1190.0	1097.8
27.77	1231.0	1097.3
27.78	1222.0	1096.8
27.79	1190.0	1096.3
27.8	1193.0	1095.8
27.81	1220.0	1095.3
27.82	1219.0	1094.8
27.83	1202.0	1094.3
27.84	1198.0	1093.8
27.85	1172.0	1093.3
27.86	1163.0	1092.8
27.87	1177.0	1092.3
27.88	1184.0	1091.8
27.89	1193.0	1091.3
27.9	1183.0	1090.8
27.91	1160.0	1090.3
27.92	1151.0	1089.8
27.93	1153.0	1089.3
27.94	1150.0	1088.8
27.95	1181.0	1088.3
27.96	1205.0	1087.8
27.97	1187.0	1087.3
27.98	1188.0	1086.8
27.99	1190.0	1086.3
28.0	1200.0	1085.8
28.01	1189.0	1085.3
28.02	1180.0	1084.8
28.03	1158.0	1084.3
28.04	1145.0	1083.8
28.05	1171.0	1083.3
28.06	1185.0	1082.8
28.07	1192.0	1082.4
28.08	1198.0	1081.9
28.09	1173.0	1081.4
28.1	1157.0	1080.9
28.11	1168.0	1080.4
28.12	1187.0	1079.9
28.13	1166.0	1079.4
28.14	1161.0	1078.9
28.15	1183.0	1078.4
28.16	1175.0	1078.0
28.17	1144.0	1077.5
28.18	1143.0	1077.0
28.19	1142.0	1076.5
28.2	1130.0	1076.0
28.21	1125.0	1075.5
28.22	1119.0	1075.0
28.23	1115.0	1074.6
28.24	1114.0	1074.1
28.25	1122.0	1073.6
28.26	1156.0	1073.1
28.27	1195.0	1072.6
28.28	1160.0	1072.2
28.29	1124.0	1071.7
28.3	1114.0	1071.2
28.31	1112.0	1070.7
28.32	1124.0	1070.2
28.33	1126.0	1069.8
28.34	1130.0	1069.3
28.35	1155.0	1068.8
28.36	1141.0	1068.3
28.37	1132.0	1067.9
28.38	1147.0	1067.4
28.39	1123.0	1066.9
28.4	1145.0	1066.4
28.41	1128.0	1066.0
28.42	1106.0	1065.5
28.43	1135.0	1065.0
28.44	1143.0	1064.5
28.45	1132.0	1064.1
28.46	1115.0	1063.6
28.47	1077.0	1063.1
28.48	1065.0	1062.7
28.49	1114.0	1062.2
28.5	1166.0	1061.7
28.51	1155.0	1061.2
28.52	1126.0	1060.8
28.53	1127.0	1060.3
28.54	1122.0	1059.8
28.55	1123.0	1059.4
28.56	1130.0	1058.9
28.57	1142.0	1058.4
28.58	1132.0	1058.0
28.59	1096.0	1057.5
28.6	1119.0	1057.1
28.61	1144.0	1056.6
28.62	1144.0	1056.1
28.63	1134.0	1055.7
28.64	1167.0	1055.2
28.65	1172.0	1054.7
28.66	1148.0	1054.3
28.67	1138.0	1053.8
28.68	1133.0	1053.4
28.69	1125.0	1052.9
28.7	1110.0	1052.4
28.71	1093.0	1052.0
28.72	1126.0	1051.5
28.73	1155.0	1051.1
28.74	1129.0	1050.6
28.75	1129.0	1050.1
28.76	1141.0	1049.7
28.77	1146.0	1049.2
28.78	1140.0	1048.8
28.79	1135.0	1048.3
28.8	1128.0	1047.9
28.81	1111.0	1047.4
28.82	1115.0	1047.0
28.83	1118.0	1046.5
28.84	1108.0	1046.1
28.85	1118.0	1045.6
28.86	1122.0	1045.1
28.87	1115.0	1044.7
28.88	1116.0	1044.2
28.89	1118.0	1043.8
28.9	1119.0	1043.3
28.91	1085.0	1042.9
28.92	1091.0	1042.4
28.93	1095.0	1042.0
28.94	1077.0	1041.5
28.95	1079.0	1041.1
28.96	1074.0	1040.7
28.97	1092.0	1040.2
28.98	1131.0	1039.8
28.99	1112.0	1039.3
29.0	1095.0	1038.9
29.01	1069.0	1038.4
29.02	1070.0	1038.0
29.03	1099.0	1037.5
29.04	1102.0	1037.1
29.05	1097.0	1036.6
29.06	1090.0	1036.2
29.07	1068.0	1035.8
29.08	1064.0	1035.3
29.09	1081.0	1034.9
29.1	1085.0	1034.4
29.11	1078.0	1034.0
29.12	1091.0	1033.6
29.13	1104.0	1033.1
29.14	1082.0	1032.7
29.15	1064.0	1032.2
29.16	1076.0	1031.8
29.17	1094.0	1031.4
29.18	1086.0	1030.9
29.19	1064.0	1030.5
29.2	1069.0	1030.1
29.21	1086.0	1029.6
29.22	1095.0	1029.2
29.23	1076.0	1028.7
29.24	1046.0	1028.3
29.25	1045.0	1027.9
29.26	1096.0	1027.4
29.27	1122.0	1027.0
29.28	1110.0	1026.6
29.29	1089.0	1026.1
29.3	1074.0	1025.7
29.31	1081.0	1025.3
29.32	1075.0	1024.9
29.33	1086.0	1024.4
29.34	1086.0	1024.0
29.35	1070.0	1023.6
29.36	1065.0	1023.1
29.37	1046.0	1022.7
29.38	1041.0	1022.3
29.39	1047.0	1021.8
29.4	1054.0	1021.4
29.41	1024.0	1021.0
29.42	1066.0	1020.6
29.43	1092.0	1020.1
29.44	1070.0	1019.7
29.45	1030.0	1019.3
29.46	1062.0	1018.9
29.47	1062.0	1018.4
29.48	1060.0	1018.0
29.49	1067.0	1017.6
29.5	1076.0	1017.2
29.51	1061.0	1016.7
29.52	1063.0	1016.3
29.53	1050.0	1015.9
29.54	1046.0	1015.5
29.55	1057.0	1015.1
29.56	1063.0	1014.6
29.57	1050.0	1014.2
29.58	1057.0	1013.8
29.59	1035.0	1013.4
29.6	1070.0	1013.0
29.61	1073.0	1012.5
29.62	1060.0	1012.1
29.63	1023.0	1011.7
29.64	1026.0	1011.3
29.65	1041.0	1010.9
29.66	1024.0	1010.4
29.67	1038.0	1010.0
29.68	1042.0	1009.6
29.69	1046.0	1009.2
29.7	1009.0	1008.8
29.71	1020.0	1008.4
29.72	1066.0	1008.0
29.73	1048.0	1007.5
29.74	1039.0	1007.1
29.75	1029.0	1006.7
29.76	999.0	1006.3
29.77	997.0	1005.9
29.78	1026.0	1005.5
29.79	1017.0	1005.1
29.8	1032.0	1004.7
29.81	1084.0	1004.2
29.82	1058.0	1003.8
29.83	1059.0	1003.4
29.84	1053.0	1003.0
29.85	1036.0	1002.6
29.86	1003.0	1002.2
29.87	1005.0	1001.8
29.88	1010.0	1001.4
29.89	1021.0	1001.0
29.9	1024.0	1000.6
29.91	998.0	1000.2
29.92	995.0	999.8
29.93	993.0	999.3
29.94	1017.0	998.9
29.95	1040.0	998.5
29.96	1016.0	998.1
29.97	980.0	997.7
29.98	978.0	997.3
29.99	974.0	996.9
30.0	975.0	996.5
30.01	1016.0	996.1
30.02	1005.0	995.7
30.03	1032.0	995.3
30.04	1062.0	994.9
30.05	1031.0	994.5
30.06	1022.0	994.1
30.07	1048.0	993.7
30.08	1037.0	993.3
30.09	1035.0	992.9
30.1	1032.0	992.5
30.11	1049.0	992.1
30.12	1060.0	991.7
30.13	1023.0	991.3
30.14	1001.0	990.9
30.15	1006.0	990.5
30.16	1010.0	990.1
30.17	998.0	989.7
30.18	1001.0	989.3
30.19	1004.0	988.9
30.2	996.0	988.5
30.21	1023.0	988.1
30.22	1025.0	987.7
30.23	1003.0	987.3
30.24	1029.0	987.0
30.25	1015.0	986.6
30.26	998.0	986.2
30.27	1003.0	985.8
30.28	991.0	985.4
30.29	1007.0	985.0
30.3	1045.0	984.6
30.31	1019.0	984.2
30.32	1004.0	983.8
30.33	1013.0	983.4
30.34	1032.0	983.0
30.35	1001.0	982.6
30.36	986.0	982.3
30.37	1021.0	981.9
30.38	1009.0	981.5
30.39	998.0	981.1
30.4	1001.0	980.7
30.41	1024.0	980.3
30.42	1027.0	979.9
30.43	987.0	979.5
30.44	982.0	979.1
30.45	973.0	978.8
30.46	990.0	978.4
30.47	994.0	978.0
30.48	988.0	977.6
30.49	1007.0	977.2
30.5	1026.0	976.8
30.51	983.0	976.4
30.52	1014.0	976.1
30.53	1025.0	975.7
30.54	997.0	975.3
30.55	990.0	974.9
30.56	1016.0	974.5
30.57	1029.0	974.1
30.58	1008.0	973.8
30.59	1002.0	973.4
30.6	1014.0	973.0
30.61	1005.0	972.6
30.62	1016.0	972.2
30.63	1013.0	971.9
30.64	994.0	971.5
30.65	1028.0	971.1
30.66	1054.0	970.7
30.67	1001.0	970.3
30.68	1003.0	970.0
30.69	987.0	969.6
30.7	987.0	969.2
30.71	1014.0	968.8
30.72	979.0	968.5
30.73	987.0	968.1
30.74	999.0	967.7
30.75	991.0	967.3
30.76	1044.0	967.0
30.77	992.0	966.6
30.78	970.0	966.2
30.79	1019.0	965.8
30.8	1025.0	965.5
30.81	968.0	965.1
30.82	969.0	964.7
30.83	997.0	964.3
30.84	991.0	964.0
30.85	974.0	963.6
30.86	1001.0	963.2
30.87	1028.0	962.8
30.88	983.0	962.5
30.89	966.0	962.1
30.9	956.0	961.7
30.91	989.0	961.4
30.92	963.0	961.0
30.93	945.0	960.6
30.94	977.0	960.2
30.95	1015.0	959.9
30.96	990.0	959.5
30.97	994.0	959.1
30.98	1000.0	958.8
30.99	973.0	958.4
31.0	967.0	958.0
31.01	963.0	957.7
31.02	957.0	957.3
31.03	953.0	956.9
31.04	965.0	956.6
31.05	947.0	956.2
31.06	951.0	955.8
31.07	996.0	955.5
31.08	999.0	955.1
31.09	965.0	954.7
31.1	985.0	954.4
31.11	1032.0	954.0
31.12	983.0	953.6
31.13	946.0	953.3
31.14	913.0	952.9
31.15	940.0	952.6
31.16	952.0	952.2
31.17	955.0	951.8
31.18	994.0	951.5
31.19	974.0	951.1
31.2	988.0	950.8
31.21	961.0	950.4
31.22	979.0	950.0
31.23	987.0	949.7
31.24	990.0	949.3
31.25	976.0	949.0
31.26	945.0	948.6
31.27	953.0	948.2
31.28	1001.0	947.9
31.29	984.0	947.5
31.3	1000.0	947.2
31.31	989.0	946.8
31.32	983.0	946.4
31.33	973.0	946.1
31.34	954.0	945.7
31.35	943.0	945.4
31.36	924.0	945.0
31.37	943.0	944.7
31.38	966.0	944.3
31.39	962.0	944.0
31.4	948.0	943.6
31.41	968.0	943.2
31.42	964.0	942.9
31.43	974.0	942.5
31.44	977.0	942.2
31.45	970.0	941.8
31.46	962.0	941.5
31.47	972.0	941.1
31.48	1027.0	940.8
31.49	996.0	940.4
31.5	969.0	940.1
31.51	1000.0	939.7
31.52	955.0	939.4
31.53	954.0	939.0
31.54	960.0	938.7
31.55	996.0	938.3
31.56	1006.0	938.0
31.57	1016.0	937.6
31.58	990.0	937.3
31.59	982.0	936.9
31.6	969.0	936.6
31.61	942.0	936.2
31.62	935.0	935.9
31.63	966.0	935.5
31.64	980.0	935.2
31.65	976.0	934.8
31.66	982.0	934.5
31.67	953.0	934.2
31.68	953.0	933.8
31.69	958.0	933.5
31.7	940.0	933.1
31.71	936.0	932.8
31.72	950.0	932.4
31.73	941.0	932.1
31.74	982.0	931.7
31.75	909.0	931.4
31.76	1011.0	931.1
31.77	978.0	930.7
31.78	954.0	930.4
31.79	975.0	930.0
31.8	927.0	929.7
31.81	927.0	929.3
31.82	974.0	929.0
31.83	990.0	928.7
31.84	978.0	928.3
31.85	970.0	928.0
31.86	975.0	927.6
31.87	985.0	927.3
31.88	973.0	927.0
31.89	955.0	926.6
31.9	974.0	926.3
31.91	955.0	925.9
31.92	959.0	925.6
31.93	988.0	925.3
31.94	932.0	924.9
31.95	969.0	924.6
31.96	1010.0	924.3
31.97	1019.0	923.9
31.98	998.0	923.6
31.99	958.0	923.2
32.0	985.0	922.9
32.01	976.0	922.6
32.02	967.0	922.2
32.03	986.0	921.9
32.04	978.0	921.6
32.05	1006.0	921.2
32.06	993.0	920.9
32.07	969.0	920.6
32.08	992.0	920.2
32.09	997.0	919.9
32.1	1025.0	919.6
32.11	984.0	919.2
32.12	994.0	918.9
32.13	1020.0	918.6
32.14	1031.0	918.2
32.15	1009.0	917.9
32.16	981.0	917.6
32.17	1000.0	917.2
32.18	1016.0	916.9
32.19	1013.0	916.6
32.2	1003.0	916.3
32.21	1011.0	915.9
32.22	1023.0	915.6
32.23	1032.0	915.3
32.24	1029.0	914.9
32.25	1049.0	914.6
32.26	1059.0	914.3
32.27	1021.0	914.0
32.28	1008.0	913.6
32.29	1030.0	913.3
32.3	1048.0	913.0
32.31	1051.0	912.6
32.32	1054.0	912.3
32.33	1077.0	912.0
32.34	1088.0	911.7
32.35	1119.0	911.3
32.36	1167.0	911.0
32.37	1154.0	910.7
32.38	1129.0	910.4
32.39	1186.0	910.0
32.4	1206.0	909.7
32.41	1181.0	909.4
32.42	1210.0	909.1
32.43	1251.0	908.7
32.44	1252.0	908.4
32.45	1230.0	908.1
32.46	1285.0	907.8
32.47	1358.0	907.5
32.48	1398.0	907.1
32.49	1417.0	906.8
32.5	1437.0	906.5
32.51	1505.0	906.2
32.52	1600.0	905.9
32.53	1626.0	905.5
32.54	1702.0	905.2
32.55	1723.0	904.9
32.56	1786.0	904.6
32.57	1870.0	904.3
32.58	1992.0	903.9
32.59	2064.0	903.6
32.6	2126.0	903.3
32.61	2227.0	903.0
32.62	2358.0	902.7
32.63	2382.0	902.3
32.64	2388.0	902.0
32.65	2429.0	901.7
32.66	2444.0	901.4
32.67	2511.0	901.1
32.68	2537.0	900.8
32.69	2549.0	900.4
32.7	2544.0	900.1
32.71	2443.0	899.8
32.72	2333.0	899.5
32.73	2306.0	899.2
32.74	2230.0	898.9
32.75	2180.0	898.6
32.76	2185.0	898.2
32.77	2074.0	897.9
32.78	1997.0	897.6
32.79	1955.0	897.3
32.8	1794.0	897.0
32.81	1736.0	896.7
32.82	1705.0	896.4
32.83	1640.0	896.1
32.84	1599.0	895.7
32.85	1553.0	895.4
32.86	1503.0	895.1
32.87	1428.0	894.8
32.88	1326.0	894.5
32.89	1271.0	894.2
32.9	1288.0	893.9
32.91	1265.0	893.6
32.92	1199.0	893.3
32.93	1206.0	892.9
32.94	1225.0	892.6
32.95	1153.0	892.3
32.96	1109.0	892.0
32.97	1120.0	891.7
32.98	1119.0	891.4
32.99	1108.0	891.1
33.0	1073.0	890.8
33.01	1060.0	890.5
33.02	1067.0	890.2
33.03	1039.0	889.9
33.04	1053.0	889.6
33.05	1028.0	889.3
33.06	1032.0	889.0
33.07	985.0	888.6
33.08	1011.0	888.3
33.09	1000.0	888.0
33.1	971.0	887.7
33.11	988.0	887.4
33.12	1008.0	887.1
33.13	997.0	886.8
33.14	961.0	886.5
33.15	937.0	886.2
33.16	970.0	885.9
33.17	973.0	885.6
33.18	948.0	885.3
33.19	971.0	885.0
33.2	968.0	884.7
33.21	933.0	884.4
33.22	913.0	884.1
33.23	905.0	883.8
33.24	923.0	883.5
33.25	954.0	883.2
33.26	931.0	882.9
33.27	926.0	882.6
33.28	945.0	882.3
33.29	937.0	882.0
33.3	954.0	881.7
33.31	959.0	881.4
33.32	937.0	881.1
33.33	925.0	880.8
33.34	897.0	880.5
33.35	907.0	880.2
33.36	922.0	879.9
33.37	901.0	879.6
33.38	912.0	879.3
33.39	901.0	879.0
33.4	946.0	878.7
33.41	946.0	878.4
33.42	920.0	878.1
33.43	946.0	877.8
33.44	956.0	877.5
33.45	914.0	877.2
33.46	911.0	876.9
33.47	919.0	876.6
33.48	905.0	876.3
33.49	902.0	876.0
33.5	935.0	875.8
33.51	918.0	875.5
33.52	900.0	875.2
33.53	920.0	874.9
33.54	935.0	874.6
33.55	921.0	874.3
33.56	923.0	874.0
33.57	912.0	873.7
33.58	896.0	873.4
33.59	894.0	873.1
33.6	908.0	872.8
33.61	894.0	872.5
33.62	891.0	872.2
33.63	874.0	871.9
33.64	856.0	871.7
33.65	858.0	871.4
33.66	925.0	871.1
33.67	917.0	870.8
33.68	923.0	870.5
33.69	899.0	870.2
33.7	907.0	869.9
33.71	902.0	869.6
33.72	882.0	869.3
33.73	916.0	869.0
33.74	951.0	868.8
33.75	902.0	868.5
33.76	899.0	868.2
33.77	918.0	867.9
33.78	893.0	867.6
33.79	883.0	867.3
33.8	863.0	867.0
33.81	905.0	866.7
33.82	911.0	866.5
33.83	885.0	866.2
33.84	891.0	865.9
33.85	908.0	865.6
33.86	894.0	865.3
33.87	891.0	865.0
33.88	878.0	864.7
33.89	921.0	864.5
33.9	917.0	864.2
33.91	896.0	863.9
33.92	864.0	863.6
33.93	851.0	863.3
33.94	881.0	863.0
33.95	869.0	862.8
33.96	871.0	862.5
33.97	871.0	862.2
33.98	843.0	861.9
33.99	846.0	861.6
34.0	883.0	861.3
34.01	898.0	861.1
34.02	913.0	860.8
34.03	895.0	860.5
34.04	871.0	860.2
34.05	900.0	859.9
34.06	894.0	859.7
34.07	883.0	859.4
34.08	888.0	859.1
34.09	863.0	858.8
34.1	888.0	858.5
34.11	904.0	858.2
34.12	888.0	858.0
34.13	870.0	857.7
34.14	851.0	857.4
34.15	850.0	857.1
34.16	887.0	856.9
34.17	894.0	856.6
34.18	888.0	856.3
34.19	908.0	856.0
34.2	895.0	855.7
34.21	873.0	855.5
34.22	879.0	855.2
34.23	866.0	854.9
34.24	853.0	854.6
34.25	834.0	854.4
34.26	850.0	854.1
34.27	865.0	853.8
34.28	870.0	853.5
34.29	864.0	853.2
34.3	865.0	853.0
34.31	871.0	852.7
34.32	856.0	852.4
34.33	858.0	852.1
34.34	861.0	851.9
34.35	852.0	851.6
34.36	866.0	851.3
34.37	854.0	851.1
34.38	846.0	850.8
34.39	861.0	850.5
34.4	873.0	850.2
34.41	858.0	850.0
34.42	841.0	849.7
34.43	865.0	849.4
34.44	871.0	849.1
34.45	859.0	848.9
34.46	841.0	848.6
34.47	824.0	848.3
34.48	836.0	848.1
34.49	866.0	847.8
34.5	884.0	847.5
34.51	859.0	847.2
34.52	856.0	847.0
34.53	875.0	846.7
34.54	868.0	846.4
34.55	851.0	846.2
34.56	859.0	845.9
34.57	859.0	845.6
34.58	845.0	845.3
34.59	835.0	845.1
34.6	852.0	844.8
34.61	859.0	844.5
34.62	865.0	844.3
34.63	870.0	844.0
34.64	849.0	843.7
34.65	858.0	843.5
34.66	865.0	843.2
34.67	863.0	842.9
34.68	864.0	842.7
34.69	861.0	842.4
34.7	880.0	842.1
34.71	890.0	841.9
34.72	869.0	841.6
34.73	873.0	841.3
34.74	890.0	841.1
34.75	856.0	840.8
34.76	834.0	840.5
34.77	869.0	840.3
34.78	864.0	840.0
34.79	831.0	839.7
34.8	825.0	839.5
34.81	845.0	839.2
34.82	852.0	838.9
34.83	849.0	838.7
34.84	870.0	838.4
34.85	868.0	838.1
34.86	864.0	837.9
34.87	848.0	837.6
34.88	834.0	837.4
34.89	848.0	837.1
34.9	856.0	836.8
34.91	882.0	836.6
34.92	871.0	836.3
34.93	853.0	836.0
34.94	875.0	835.8
34.95	860.0	835.5
34.96	836.0	835.3
34.97	837.0	835.0
34.98	863.0	834.7
34.99	859.0	834.5
35.0	851.0	834.2
35.01	859.0	834.0
35.02	857.0	833.7
35.03	857.0	833.4
35.04	863.0	833.2
35.05	855.0	832.9
35.06	826.0	832.7
35.07	824.0	832.4
35.08	835.0	832.1
35.09	847.0	831.9
35.1	840.0	831.6
35.11	817.0	831.4
35.12	832.0	831.1
35.13	853.0	830.8
35.14	860.0	830.6
35.15	853.0	830.3
35.16	860.0	830.1
35.17	871.0	829.8
35.18	876.0	829.6
35.19	864.0	829.3
35.2	854.0	829.0
35.21	841.0	828.8
35.22	818.0	828.5
35.23	844.0	828.3
35.24	856.0	828.0
35.25	851.0	827.8
35.26	852.0	827.5
35.27	855.0	827.2
35.28	851.0	827.0
35.29	842.0	826.7
35.3	820.0	826.5
35.31	845.0	826.2
35.32	870.0	826.0
35.33	889.0	825.7
35.34	882.0	825.5
35.35	862.0	825.2
35.36	848.0	825.0
35.37	846.0	824.7
35.38	847.0	824.5
35.39	842.0	824.2
35.4	849.0	823.9
35.41	857.0	823.7
35.42	853.0	823.4
35.43	862.0	823.2
35.44	847.0	822.9
35.45	831.0	822.7
35.46	840.0	822.4
35.47	847.0	822.2
35.48	836.0	821.9
35.49	836.0	821.7
35.5	861.0	821.4
35.51	858.0	821.2
35.52	859.0	820.9
35.53	872.0	820.7
35.54	858.0	820.4
35.55	844.0	820.2
35.56	902.0	819.9
35.57	913.0	819.7
35.58	884.0	819.4
35.59	860.0	819.2
35.6	878.0	818.9
35.61	884.0	818.7
35.62	854.0	818.4
35.63	837.0	818.2
35.64	831.0	817.9
35.65	837.0	817.7
35.66	854.0	817.4
35.67	861.0	817.2
35.68	851.0	816.9
35.69	833.0	816.7
35.7	826.0	816.5
35.71	843.0	816.2
35.72	874.0	816.0
35.73	899.0	815.7
35.74	886.0	815.5
35.75	864.0	815.2
35.76	865.0	815.0
35.77	870.0	814.7
35.78	877.0	814.5
35.79	872.0	814.2
35.8	855.0	814.0
35.81	840.0	813.8
35.82	851.0	813.5
35.83	863.0	813.3
35.84	868.0	813.0
35.85	867.0	812.8
35.86	859.0	812.5
35.87	869.0	812.3
35.88	886.0	812.1
35.89	883.0	811.8
35.9	884.0	811.6
35.91	879.0	811.3
35.92	877.0	811.1
35.93	891.0	810.8
35.94	895.0	810.6
35.95	895.0	810.4
35.96	897.0	810.1
35.97	874.0	809.9
35.98	880.0	809.6
35.99	882.0	809.4
36.0	892.0	809.2
36.01	895.0	808.9
36.02	861.0	808.7
36.03	859.0	808.4
36.04	857.0	808.2
36.05	851.0	808.0
36.06	868.0	807.7
36.07	887.0	807.5
36.08	900.0	807.2
36.09	907.0	807.0
36.1	909.0	806.8
36.11	883.0	806.5
36.12	858.0	806.3
36.13	882.0	806.1
36.14	910.0	805.8
36.15	898.0	805.6
36.16	879.0	805.3
36.17	893.0	805.1
36.18	937.0	804.9
36.19	929.0	804.6
36.2	897.0	804.4
36.21	897.0	804.2
36.22	893.0	803.9
36.23	901.0	803.7
36.24	912.0	803.5
36.25	890.0	803.2
36.26	879.0	803.0
36.27	887.0	802.8
36.28	900.0	802.5
36.29	916.0	802.3
36.3	924.0	802.1
36.31	921.0	801.8
36.32	918.0	801.6
36.33	901.0	801.4
36.34	876.0	801.1
36.35	889.0	800.9
36.36	913.0	800.7
36.37	919.0	800.4
36.38	915.0	800.2
36.39	913.0	800.0
36.4	916.0	799.7
36.41	909.0	799.5
36.42	913.0	799.3
36.43	907.0	799.0
36.44	915.0	798.8
36.45	925.0	798.6
36.46	903.0	798.4
36.47	904.0	798.1
36.48	908.0	797.9
36.49	891.0	797.7
36.5	884.0	797.4
36.51	910.0	797.2
36.52	947.0	797.0
36.53	936.0	796.8
36.54	912.0	796.5
36.55	922.0	796.3
36.56	926.0	796.1
36.57	904.0	795.8
36.58	894.0	795.6
36.59	930.0	795.4
36.6	971.0	795.2
36.61	974.0	794.9
36.62	957.0	794.7
36.63	955.0	794.5
36.64	989.0	794.3
36.65	1027.0	794.0
36.66	1012.0	793.8
36.67	995.0	793.6
36.68	1032.0	793.4
36.69	1072.0	793.1
36.7	1082.0	792.9
36.71	1072.0	792.7
36.72	1053.0	792.5
36.73	1061.0	792.2
36.74	1093.0	792.0
36.75	1114.0	791.8
36.76	1078.0	791.6
36.77	1053.0	791.4
36.78	1100.0	791.1
36.79	1140.0	790.9
36.8	1168.0	790.7
36.81	1172.0	790.5
36.82	1187.0	790.2
36.83	1198.0	790.0
36.84	1159.0	789.8
36.85	1123.0	789.6
36.86	1104.0	789.4
36.87	1113.0	789.1
36.88	1127.0	788.9
36.89	1123.0	788.7
36.9	1125.0	788.5
36.91	1144.0	788.3
36.92	1132.0	788.1
36.93	1121.0	787.8
36.94	1106.0	787.6
36.95	1077.0	787.4
36.96	1078.0	787.2
36.97	1079.0	787.0
36.98	1047.0	786.7
36.99	1040.0	786.5
37.0	1052.0	786.3
37.01	1039.0	786.1
37.02	1028.0	785.9
37.03	1010.0	785.7
37.04	1021.0	785.5
37.05	1046.0	785.2
37.06	1047.0	785.0
37.07	1050.0	784.8
37.08	1034.0	784.6
37.09	1022.0	784.4
37.1	1045.0	784.2
37.11	1071.0	783.9
37.12	1068.0	783.7
37.13	1050.0	783.5
37.14	1039.0	783.3
37.15	1033.0	783.1
37.16	1024.0	782.9
37.17	1020.0	782.7
37.18	1010.0	782.5
37.19	1015.0	782.3
37.2	1029.0	782.0
37.21	1026.0	781.8
37.22	1028.0	781.6
37.23	1044.0	781.4
37.24	1048.0	781.2
37.25	1035.0	781.0
37.26	1059.0	780.8
37.27	1064.0	780.6
37.28	1056.0	780.4
37.29	1066.0	780.1
37.3	1080.0	779.9
37.31	1105.0	779.7
37.32	1109.0	779.5
37.33	1080.0	779.3
37.34	1077.0	779.1
37.35	1103.0	778.9
37.36	1118.0	778.7
37.37	1136.0	778.5
37.38	1139.0	778.3
37.39	1145.0	778.1
37.4	1176.0	777.9
37.41	1207.0	777.7
37.42	1217.0	777.5
37.43	1206.0	777.3
37.44	1216.0	777.0
37.45	1258.0	776.8
37.46	1304.0	776.6
37.47	1316.0	776.4
37.48	1345.0	776.2
37.49	1392.0	776.0
37.5	1417.0	775.8
37.51	1461.0	775.6
37.52	1520.0	775.4
37.53	1584.0	775.2
37.54	1649.0	775.0
37.55	1691.0	774.8
37.56	1715.0	774.6
37.57	1755.0	774.4
37.58	1789.0	774.2
37.59	1832.0	774.0
37.6	1912.0	773.8
37.61	1999.0	773.6
37.62	2049.0	773.4
37.63	2031.0	773.2
37.64	2046.0	773.0
37.65	2041.0	772.8
37.66	1996.0	772.6
37.67	1985.0	772.4
37.68	2029.0	772.2
37.69	2013.0	772.0
37.7	1956.0	771.8
37.71	1915.0	771.6
37.72	1926.0	771.4
37.73	1887.0	771.2
37.74	1860.0	771.0
37.75	1837.0	770.8
37.76	1793.0	770.6
37.77	1735.0	770.4
37.78	1700.0	770.2
37.79	1667.0	770.0
37.8	1595.0	769.8
37.81	1567.0	769.7
37.82	1568.0	769.5
37.83	1508.0	769.3
37.84	1468.0	769.1
37.85	1492.0	768.9
37.86	1453.0	768.7
37.87	1424.0	768.5
37.88	1392.0	768.3
37.89	1375.0	768.1
37.9	1375.0	767.9
37.91	1372.0	767.7
37.92	1371.0	767.5
37.93	1348.0	767.3
37.94	1315.0	767.1
37.95	1306.0	767.0
37.96	1281.0	766.8
37.97	1276.0	766.6
37.98	1235.0	766.4
37.99	1242.0	766.2
38.0	1244.0	766.0
38.01	1200.0	765.8
38.02	1201.0	765.6
38.03	1188.0	765.4
38.04	1178.0	765.2
38.05	1197.0	765.1
38.06	1183.0	764.9
38.07	1159.0	764.7
38.08	1148.0	764.5
38.09	1140.0	764.3
38.1	1142.0	764.1
38.11	1118.0	763.9
38.12	1107.0	763.7
38.13	1091.0	763.6
38.14	1077.0	763.4
38.15	1078.0	763.2
38.16	1054.0	763.0
38.17	1062.0	762.8
38.18	1089.0	762.6
38.19	1061.0	762.5
38.2	1036.0	762.3
38.21	1031.0	762.1
38.22	1043.0	761.9
38.23	1051.0	761.7
38.24	1048.0	761.5
38.25	1040.0	761.4
38.26	1037.0	761.2
38.27	1034.0	761.0
38.28	1035.0	760.8
38.29	992.0	760.6
38.3	999.0	760.4
38.31	1029.0	760.3
38.32	1004.0	760.1
38.33	1010.0	759.9
38.34	1013.0	759.7
38.35	1006.0	759.5
38.36	1020.0	759.4
38.37	999.0	759.2
38.38	960.0	759.0
38.39	964.0	758.8
38.4	968.0	758.6
38.41	983.0	758.5
38.42	989.0	758.3
38.43	999.0	758.1
38.44	1003.0	757.9
38.45	985.0	757.8
38.46	986.0	757.6
38.47	992.0	757.4
38.48	999.0	757.2
38.49	972.0	757.1
38.5	989.0	756.9
38.51	989.0	756.7
38.52	991.0	756.5
38.53	979.0	756.4
38.54	985.0	756.2
38.55	1004.0	756.0
38.56	994.0	755.8
38.57	970.0	755.7
38.58	957.0	755.5
38.59	974.0	755.3
38.6	975.0	755.2
38.61	963.0	755.0
38.62	972.0	754.8
38.63	964.0	754.6
38.64	942.0	754.5
38.65	948.0	754.3
38.66	957.0	754.1
38.67	941.0	754.0
38.68	925.0	753.8
38.69	915.0	753.6
38.7	893.0	753.4
38.71	899.0	753.3
38.72	928.0	753.1
38.73	954.0	752.9
38.74	958.0	752.8
38.75	962.0	752.6
38.76	941.0	752.4
38.77	906.0	752.3
38.78	905.0	752.1
38.79	930.0	751.9
38.8	923.0	751.8
38.81	909.0	751.6
38.82	924.0	751.4
38.83	938.0	751.3
38.84	913.0	751.1
38.85	909.0	750.9
38.86	910.0	750.8
38.87	862.0	750.6
38.88	888.0	750.5
38.89	927.0	750.3
38.9	889.0	750.1
38.91	841.0	750.0
38.92	849.0	749.8
38.93	886.0	749.6
38.94	870.0	749.5
38.95	880.0	749.3
38.96	878.0	749.2
38.97	869.0	749.0
38.98	855.0	748.8
38.99	844.0	748.7
39.0	844.0	748.5
39.01	848.0	748.4
39.02	850.0	748.2
39.03	844.0	748.0
39.04	849.0	747.9
39.05	868.0	747.7
39.06	855.0	747.6
39.07	808.0	747.4
39.08	814.0	747.3
39.09	810.0	747.1
39.1	823.0	746.9
39.11	839.0	746.8
39.12	854.0	746.6
39.13	882.0	746.5
39.14	854.0	746.3
39.15	818.0	746.2
39.16	802.0	746.0
39.17	806.0	745.8
39.18	853.0	745.7
39.19	827.0	745.5
39.2	804.0	745.4
39.21	800.0	745.2
39.22	836.0	745.1
39.23	845.0	744.9
39.24	838.0	744.8
39.25	838.0	744.6
39.26	843.0	744.5
39.27	830.0	744.3
39.28	824.0	744.2
39.29	811.0	744.0
39.3	822.0	743.9
39.31	826.0	743.7
39.32	822.0	743.6
39.33	818.0	743.4
39.34	819.0	743.3
39.35	823.0	743.1
39.36	831.0	743.0
39.37	802.0	742.8
39.38	784.0	742.7
39.39	815.0	742.5
39.4	815.0	742.4
39.41	831.0	742.2
39.42	805.0	742.1
39.43	819.0	741.9
39.44	836.0	741.8
39.45	806.0	741.7
39.46	817.0	741.5
39.47	826.0	741.4
39.48	823.0	741.2
39.49	798.0	741.1
39.5	779.0	740.9
39.51	782.0	740.8
39.52	821.0	740.6
39.53	842.0	740.5
39.54	815.0	740.4
39.55	777.0	740.2
39.56	798.0	740.1
39.57	819.0	739.9
39.58	813.0	739.8
39.59	798.0	739.7
39.6	798.0	739.5
39.61	770.0	739.4
39.62	776.0	739.2
39.63	797.0	739.1
39.64	806.0	739.0
39.65	787.0	738.8
39.66	781.0	738.7
39.67	777.0	738.5
39.68	770.0	738.4
39.69	774.0	738.3
39.7	776.0	738.1
39.71	772.0	738.0
39.72	768.0	737.9
39.73	794.0	737.7
39.74	829.0	737.6
39.75	815.0	737.4
39.76	781.0	737.3
39.77	789.0	737.2
39.78	802.0	737.0
39.79	794.0	736.9
39.8	788.0	736.8
39.81	812.0	736.6
39.82	771.0	736.5
39.83	778.0	736.4
39.84	808.0	736.2
39.85	845.0	736.1
39.86	841.0	736.0
39.87	841.0	735.8
39.88	812.0	735.7
39.89	776.0	735.6
39.9	793.0	735.5
39.91	797.0	735.3
39.92	757.0	735.2
39.93	764.0	735.1
39.94	806.0	734.9
39.95	808.0	734.8
39.96	784.0	734.7
39.97	791.0	734.6
39.98	790.0	734.4
39.99	791.0	734.3
40.0	806.0	734.2
40.01	793.0	734.0
40.02	783.0	733.9
40.03	790.0	733.8
40.04	787.0	733.7
40.05	762.0	733.5
40.06	775.0	733.4
40.07	808.0	733.3
40.08	814.0	733.2
40.09	781.0	733.0
40.1	757.0	732.9
40.11	756.0	732.8
40.12	771.0	732.7
40.13	797.0	732.6
40.14	810.0	732.4
40.15	777.0	732.3
40.16	783.0	732.2
40.17	766.0	732.1
40.18	761.0	731.9
40.19	775.0	731.8
40.2	807.0	731.7
40.21	793.0	731.6
40.22	762.0	731.5
40.23	796.0	731.4
40.24	792.0	731.2
40.25	790.0	731.1
40.26	770.0	731.0
40.27	770.0	730.9
40.28	795.0	730.8
40.29	802.0	730.6
40.3	775.0	730.5
40.31	772.0	730.4
40.32	773.0	730.3
40.33	782.0	730.2
40.34	788.0	730.1
40.35	764.0	730.0
40.36	790.0	729.8
40.37	809.0	729.7
40.38	784.0	729.6
40.39	763.0	729.5
40.4	766.0	729.4
40.41	785.0	729.3
40.42	770.0	729.2
40.43	758.0	729.0
40.44	787.0	728.9
40.45	800.0	728.8
40.46	791.0	728.7
40.47	786.0	728.6
40.48	770.0	728.5
40.49	774.0	728.4
40.5	778.0	728.3
40.51	816.0	728.2
40.52	832.0	728.1
40.53	774.0	727.9
40.54	783.0	727.8
40.55	794.0	727.7
40.56	793.0	727.6
40.57	832.0	727.5
40.58	818.0	727.4
40.59	751.0	727.3
40.6	779.0	727.2
40.61	795.0	727.1
40.62	783.0	727.0
40.63	799.0	726.9
40.64	794.0	726.8
40.65	825.0	726.7
40.66	796.0	726.6
40.67	765.0	726.5
40.68	790.0	726.4
40.69	801.0	726.3
40.7	812.0	726.2
40.71	796.0	726.1
40.72	796.0	726.0
40.73	791.0	725.9
40.74	785.0	725.8
40.75	774.0	725.7
40.76	755.0	725.6
40.77	751.0	725.5
40.78	781.0	725.4
40.79	794.0	725.3
40.8	755.0	725.2
40.81	764.0	725.1
40.82	813.0	725.0
40.83	804.0	724.9
40.84	806.0	724.8
40.85	816.0	724.7
40.86	791.0	724.6
40.87	759.0	724.5
40.88	803.0	724.4
40.89	834.0	724.3
40.9	820.0	724.2
40.91	767.0	724.1
40.92	792.0	724.0
40.93	793.0	723.9
40.94	804.0	723.8
40.95	786.0	723.7
40.96	820.0	723.6
40.97	809.0	723.5
40.98	786.0	723.5
40.99	824.0	723.4
41.0	818.0	723.3
41.01	805.0	723.2
41.02	796.0	723.1
41.03	786.0	723.0
41.04	807.0	722.9
41.05	811.0	722.8
41.06	817.0	722.7
41.07	848.0	722.6
41.08	825.0	722.6
41.09	821.0	722.5
41.1	861.0	722.4
41.11	854.0	722.3
41.12	855.0	722.2
41.13	872.0	722.1
41.14	849.0	722.0
41.15	842.0	722.0
41.16	844.0	721.9
41.17	854.0	721.8
41.18	909.0	721.7
41.19	904.0	721.6
41.2	890.0	721.5
41.21	940.0	721.5
41.22	921.0	721.4
41.23	945.0	721.3
41.24	954.0	721.2
41.25	981.0	721.1
41.26	1010.0	721.0
41.27	1033.0	721.0
41.28	1037.0	720.9
41.29	1024.0	720.8
41.3	1095.0	720.7
41.31	1085.0	720.6
41.32	1099.0	720.6
41.33	1082.0	720.5
41.34	1089.0	720.4
41.35	1098.0	720.3
41.36	1070.0	720.3
41.37	1075.0	720.2
41.38	1080.0	720.1
41.39	1074.0	720.0
41.4	1075.0	719.9
41.41	1045.0	719.9
41.42	1041.0	719.8
41.43	1035.0	719.7
41.44	1067.0	719.6
41.45	986.0	719.6
41.46	989.0	719.5
41.47	970.0	719.4
41.48	927.0	719.4
41.49	939.0	719.3
41.5	923.0	719.2
41.51	913.0	719.1
41.52	942.0	719.1
41.53	923.0	719.0
41.54	869.0	718.9
41.55	844.0	718.9
41.56	863.0	718.8
41.57	874.0	718.7
41.58	842.0	718.6
41.59	811.0	718.6
41.6	797.0	718.5
41.61	807.0	718.4
41.62	838.0	718.4
41.63	842.0	718.3
41.64	824.0	718.2
41.65	811.0	718.2
41.66	780.0	718.1
41.67	801.0	718.0
41.68	822.0	718.0
41.69	826.0	717.9
41.7	819.0	717.9
41.71	797.0	717.8
41.72	766.0	717.7
41.73	786.0	717.7
41.74	793.0	717.6
41.75	789.0	717.5
41.76	816.0	717.5
41.77	799.0	717.4
41.78	811.0	717.4
41.79	795.0	717.3
41.8	787.0	717.2
41.81	777.0	717.2
41.82	795.0	717.1
41.83	818.0	717.1
41.84	776.0	717.0
41.85	786.0	716.9
41.86	792.0	716.9
41.87	804.0	716.8
41.88	810.0	716.8
41.89	779.0	716.7
41.9	743.0	716.7
41.91	754.0	716.6
41.92	761.0	716.5
41.93	737.0	716.5
41.94	735.0	716.4
41.95	763.0	716.4
41.96	735.0	716.3
41.97	746.0	716.3
41.98	750.0	716.2
41.99	751.0	716.2
42.0	747.0	716.1
42.01	764.0	716.1
42.02	754.0	716.0
42.03	743.0	716.0
42.04	764.0	715.9
42.05	767.0	715.9
42.06	757.0	715.8
42.07	759.0	715.8
42.08	748.0	715.7
42.09	745.0	715.7
42.1	762.0	715.6
42.11	773.0	715.6
42.12	725.0	715.5
42.13	766.0	715.5
42.14	744.0	715.4
42.15	788.0	715.4
42.16	767.0	715.3
42.17	776.0	715.3
42.18	796.0	715.3
42.19	771.0	715.2
42.2	757.0	715.2
42.21	780.0	715.1
42.22	759.0	715.1
42.23	739.0	715.0
42.24	775.0	715.0
42.25	782.0	715.0
42.26	783.0	714.9
42.27	793.0	714.9
42.28	768.0	714.8
42.29	737.0	714.8
42.3	750.0	714.8
42.31	750.0	714.7
42.32	768.0	714.7
42.33	772.0	714.6
42.34	767.0	714.6
42.35	769.0	714.6
42.36	797.0	714.5
42.37	748.0	714.5
42.38	756.0	714.5
42.39	751.0	714.4
42.4	759.0	714.4
42.41	780.0	714.3
42.42	766.0	714.3
42.43	747.0	714.3
42.44	760.0	714.2
42.45	775.0	714.2
42.46	776.0	714.2
42.47	752.0	714.1
42.48	740.0	714.1
42.49	721.0	714.1
42.5	750.0	714.0
42.51	767.0	714.0
42.52	744.0	714.0
42.53	727.0	714.0
42.54	760.0	713.9
42.55	747.0	713.9
42.56	757.0	713.9
42.57	744.0	713.8
42.58	740.0	713.8
42.59	779.0	713.8
42.6	750.0	713.8
42.61	732.0	713.7
42.62	762.0	713.7
42.63	767.0	713.7
42.64	781.0	713.7
42.65	769.0	713.6
42.66	784.0	713.6
42.67	813.0	713.6
42.68	749.0	713.6
42.69	719.0	713.5
42.7	756.0	713.5
42.71	760.0	713.5
42.72	752.0	713.5
42.73	736.0	713.4
42.74	743.0	713.4
42.75	770.0	713.4
42.76	801.0	713.4
42.77	782.0	713.4
42.78	786.0	713.3
42.79	768.0	713.3
42.8	759.0	713.3
42.81	726.0	713.3
42.82	737.0	713.3
42.83	775.0	713.3
42.84	790.0	713.2
42.85	760.0	713.2
42.86	746.0	713.2
42.87	736.0	713.2
42.88	712.0	713.2
42.89	703.0	713.2
42.9	713.0	713.1
42.91	734.0	713.1
42.92	762.0	713.1
42.93	744.0	713.1
42.94	736.0	713.1
42.95	764.0	713.1
42.96	788.0	713.1
42.97	763.0	713.1
42.98	770.0	713.0
42.99	769.0	713.0
43.0	760.0	713.0
43.01	807.0	713.0
43.02	756.0	713.0
43.03	755.0	713.0
43.04	775.0	713.0
43.05	771.0	713.0
43.06	781.0	713.0
43.07	735.0	713.0
43.08	725.0	713.0
43.09	756.0	713.0
43.1	755.0	713.0
43.11	764.0	712.9
43.12	778.0	712.9
43.13	769.0	712.9
43.14	734.0	712.9
43.15	764.0	712.9
43.16	771.0	712.9
43.17	725.0	712.9
43.18	731.0	712.9
43.19	747.0	712.9
43.2	753.0	712.9
43.21	750.0	712.9
43.22	764.0	712.9
43.23	761.0	712.9
43.24	738.0	712.9
43.25	731.0	712.9
43.26	742.0	712.9
43.27	774.0	712.9
43.28	767.0	712.9
43.29	734.0	712.9
43.3	745.0	712.9
43.31	763.0	712.9
43.32	768.0	712.9
43.33	753.0	712.9
43.34	736.0	712.9
43.35	742.0	712.9
43.36	726.0	712.9
43.37	714.0	712.9
43.38	722.0	713.0
43.39	730.0	713.0
43.4	765.0	713.0
43.41	757.0	713.0
43.42	769.0	713.0
43.43	751.0	713.0
43.44	728.0	713.0
43.45	762.0	713.0
43.46	756.0	713.0
43.47	743.0	713.0
43.48	738.0	713.0
43.49	726.0	713.0
43.5	738.0	713.1
43.51	734.0	713.1
43.52	737.0	713.1
43.53	763.0	713.1
43.54	789.0	713.1
43.55	762.0	713.1
43.56	762.0	713.1
43.57	753.0	713.1
43.58	750.0	713.1
43.59	757.0	713.2
43.6	750.0	713.2
43.61	758.0	713.2
43.62	758.0	713.2
43.63	747.0	713.2
43.64	754.0	713.2
43.65	745.0	713.3
43.66	748.0	713.3
43.67	760.0	713.3
43.68	771.0	713.3
43.69	762.0	713.3
43.7	737.0	713.3
43.71	738.0	713.4
43.72	765.0	713.4
43.73	771.0	713.4
43.74	748.0	713.4
43.75	732.0	713.4
43.76	729.0	713.4
43.77	762.0	713.5
43.78	771.0	713.5
43.79	765.0	713.5
43.8	766.0	713.5
43.81	767.0	713.6
43.82	763.0	713.6
43.83	722.0	713.6
43.84	682.0	713.6
43.85	713.0	713.6
43.86	752.0	713.7
43.87	742.0	713.7
43.88	769.0	713.7
43.89	765.0	713.7
43.9	767.0	713.8
43.91	785.0	713.8
43.92	755.0	713.8
43.93	750.0	713.8
43.94	757.0	713.9
43.95	743.0	713.9
43.96	745.0	713.9
43.97	732.0	713.9
43.98	731.0	714.0
43.99	722.0	714.0
44.0	735.0	714.0
44.01	743.0	714.1
44.02	749.0	714.1
44.03	731.0	714.1
44.04	746.0	714.1
44.05	741.0	714.2
44.06	751.0	714.2
44.07	737.0	714.2
44.08	734.0	714.3
44.09	764.0	714.3
44.1	735.0	714.3
44.11	737.0	714.4
44.12	752.0	714.4
44.13	705.0	714.4
44.14	720.0	714.5
44.15	743.0	714.5
44.16	748.0	714.5
44.17	744.0	714.6
44.18	733.0	714.6
44.19	744.0	714.6
44.2	740.0	714.7
44.21	750.0	714.7
44.22	761.0	714.7
44.23	746.0	714.8
44.24	764.0	714.8
44.25	770.0	714.8
44.26	765.0	714.9
44.27	728.0	714.9
44.28	714.0	715.0
44.29	738.0	715.0
44.3	739.0	715.0
44.31	704.0	715.1
44.32	714.0	715.1
44.33	731.0	715.1
44.34	732.0	715.2
44.35	741.0	715.2
44.36	764.0	715.3
44.37	780.0	715.3
44.38	756.0	715.3
44.39	747.0	715.4
44.4	739.0	715.4
44.41	775.0	715.5
44.42	750.0	715.5
44.43	731.0	715.6
44.44	751.0	715.6
44.45	777.0	715.6
44.46	748.0	715.7
44.47	757.0	715.7
44.48	757.0	715.8
44.49	741.0	715.8
44.5	743.0	715.9
44.51	745.0	715.9
44.52	741.0	715.9
44.53	751.0	716.0
44.54	736.0	716.0
44.55	731.0	716.1
44.56	748.0	716.1
44.57	746.0	716.2
44.58	718.0	716.2
44.59	743.0	716.3
44.6	743.0	716.3
44.61	710.0	716.4
44.62	720.0	716.4
44.63	722.0	716.5
44.64	725.0	716.5
44.65	749.0	716.6
44.66	754.0	716.6
44.67	736.0	716.7
44.68	750.0	716.7
44.69	713.0	716.8
44.7	725.0	716.8
44.71	753.0	716.9
44.72	742.0	716.9
44.73	731.0	717.0
44.74	735.0	717.0
44.75	757.0	717.1
44.76	732.0	717.1
44.77	732.0	717.2
44.78	737.0	717.2
44.79	713.0	717.3
44.8	715.0	717.3
44.81	725.0	717.4
44.82	728.0	717.4
44.83	753.0	717.5
44.84	749.0	717.5
44.85	745.0	717.6
44.86	695.0	717.6
44.87	698.0	717.7
44.88	752.0	717.8
44.89	783.0	717.8
44.9	804.0	717.9
44.91	730.0	717.9
44.92	703.0	718.0
44.93	731.0	718.0
44.94	756.0	718.1
44.95	727.0	718.1
44.96	718.0	718.2
44.97	702.0	718.3
44.98	710.0	718.3
44.99	727.0	718.4
45.0	719.0	718.4
45.01	715.0	718.5
45.02	703.0	718.5
45.03	710.0	718.6
45.04	747.0	718.7
45.05	764.0	718.7
45.06	721.0	718.8
45.07	732.0	718.8
45.08	707.0	718.9
45.09	736.0	719.0
45.1	752.0	719.0
45.11	729.0	719.1
45.12	741.0	719.1
45.13	742.0	719.2
45.14	731.0	719.3
45.15	742.0	719.3
45.16	763.0	719.4
45.17	747.0	719.5
45.18	713.0	719.5
45.19	726.0	719.6
45.2	746.0	719.6
45.21	746.0	719.7
45.22	723.0	719.8
45.23	704.0	719.8
45.24	704.0	719.9
45.25	710.0	720.0
45.26	764.0	720.0
45.27	761.0	720.1
45.28	744.0	720.2
45.29	750.0	720.2
45.3	755.0	720.3
45.31	726.0	720.4
45.32	724.0	720.4
45.33	756.0	720.5
45.34	755.0	720.6
45.35	730.0	720.6
45.36	740.0	720.7
45.37	745.0	720.8
45.38	756.0	720.8
45.39	762.0	720.9
45.4	784.0	721.0
45.41	765.0	721.0
45.42	724.0	721.1
45.43	717.0	721.2
45.44	733.0	721.2
45.45	736.0	721.3
45.46	757.0	721.4
45.47	741.0	721.4
45.48	748.0	721.5
45.49	752.0	721.6
45.5	725.0	721.6
45.51	719.0	721.7
45.52	739.0	721.8
45.53	764.0	721.9
45.54	737.0	721.9
45.55	719.0	722.0
45.56	721.0	722.1
45.57	746.0	722.1
45.58	749.0	722.2
45.59	719.0	722.3
45.6	713.0	722.4
45.61	735.0	722.4
45.62	731.0	722.5
45.63	718.0	722.6
45.64	734.0	722.6
45.65	734.0	722.7
45.66	728.0	722.8
45.67	718.0	722.9
45.68	733.0	722.9
45.69	743.0	723.0
45.7	753.0	723.1
45.71	761.0	723.2
45.72	742.0	723.2
45.73	719.0	723.3
45.74	733.0	723.4
45.75	735.0	723.5
45.76	747.0	723.5
45.77	742.0	723.6
45.78	754.0	723.7
45.79	738.0	723.8
45.8	731.0	723.8
45.81	745.0	723.9
45.82	757.0	724.0
45.83	738.0	724.1
45.84	711.0	724.1
45.85	711.0	724.2
45.86	717.0	724.3
45.87	733.0	724.4
45.88	739.0	724.4
45.89	726.0	724.5
45.9	722.0	724.6
45.91	739.0	724.7
45.92	738.0	724.8
45.93	756.0	724.8
45.94	762.0	724.9
45.95	765.0	725.0
45.96	756.0	725.1
45.97	761.0	725.1
45.98	737.0	725.2
45.99	719.0	725.3
46.0	735.0	725.4
46.01	743.0	725.5
46.02	726.0	725.5
46.03	723.0	725.6
46.04	730.0	725.7
46.05	741.0	725.8
46.06	739.0	725.9
46.07	731.0	725.9
46.08	727.0	726.0
46.09	749.0	726.1
46.1	744.0	726.2
46.11	718.0	726.3
46.12	729.0	726.4
46.13	739.0	726.4
46.14	734.0	726.5
46.15	740.0	726.6
46.16	732.0	726.7
46.17	736.0	726.8
46.18	754.0	726.8
46.19	736.0	726.9
46.2	731.0	727.0
46.21	732.0	727.1
46.22	742.0	727.2
46.23	769.0	727.3
46.24	765.0	727.3
46.25	748.0	727.4
46.26	738.0	727.5
46.27	741.0	727.6
46.28	774.0	727.7
46.29	787.0	727.8
46.3	758.0	727.8
46.31	738.0	727.9
46.32	719.0	728.0
46.33	727.0	728.1
46.34	732.0	728.2
46.35	745.0	728.3
46.36	752.0	728.4
46.37	761.0	728.4
46.38	775.0	728.5
46.39	770.0	728.6
46.4	760.0	728.7
46.41	741.0	728.8
46.42	741.0	728.9
46.43	744.0	729.0
46.44	754.0	729.0
46.45	757.0	729.1
46.46	738.0	729.2
46.47	728.0	729.3
46.48	733.0	729.4
46.49	740.0	729.5
46.5	763.0	729.6
46.51	779.0	729.6
46.52	757.0	729.7
46.53	751.0	729.8
46.54	736.0	729.9
46.55	751.0	730.0
46.56	791.0	730.1
46.57	783.0	730.2
46.58	736.0	730.3
46.59	755.0	730.3
46.6	774.0	730.4
46.61	736.0	730.5
46.62	710.0	730.6
46.63	731.0	730.7
46.64	740.0	730.8
46.65	730.0	730.9
46.66	746.0	731.0
46.67	773.0	731.1
46.68	784.0	731.1
46.69	771.0	731.2
46.7	773.0	731.3
46.71	782.0	731.4
46.72	772.0	731.5
46.73	787.0	731.6
46.74	774.0	731.7
46.75	776.0	731.8
46.76	773.0	731.9
46.77	770.0	732.0
46.78	774.0	732.0
46.79	782.0	732.1
46.8	761.0	732.2
46.81	755.0	732.3
46.82	775.0	732.4
46.83	750.0	732.5
46.84	748.0	732.6
46.85	751.0	732.7
46.86	759.0	732.8
46.87	782.0	732.9
46.88	778.0	733.0
46.89	770.0	733.0
46.9	775.0	733.1
46.91	799.0	733.2
46.92	811.0	733.3
46.93	792.0	733.4
46.94	779.0	733.5
46.95	790.0	733.6
46.96	789.0	733.7
46.97	796.0	733.8
46.98	802.0	733.9
46.99	784.0	734.0
47.0	768.0	734.1
47.01	739.0	734.2
47.02	755.0	734.2
47.03	782.0	734.3
47.04	790.0	734.4
47.05	774.0	734.5
47.06	791.0	734.6
47.07	813.0	734.7
47.08	819.0	734.8
47.09	829.0	734.9
47.1	809.0	735.0
47.11	791.0	735.1
47.12	777.0	735.2
47.13	790.0	735.3
47.14	827.0	735.4
47.15	818.0	735.5
47.16	801.0	735.5
47.17	800.0	735.6
47.18	809.0	735.7
47.19	802.0	735.8
47.2	800.0	735.9
47.21	819.0	736.0
47.22	823.0	736.1
47.23	823.0	736.2
47.24	821.0	736.3
47.25	819.0	736.4
47.26	823.0	736.5
47.27	820.0	736.6
47.28	820.0	736.7
47.29	814.0	736.8
47.3	815.0	736.9
47.31	836.0	737.0
47.32	832.0	737.1
47.33	810.0	737.2
47.34	825.0	737.2
47.35	845.0	737.3
47.36	833.0	737.4
47.37	845.0	737.5
47.38	865.0	737.6
47.39	887.0	737.7
47.4	872.0	737.8
47.41	852.0	737.9
47.42	872.0	738.0
47.43	884.0	738.1
47.44	896.0	738.2
47.45	899.0	738.3
47.46	894.0	738.4
47.47	882.0	738.5
47.48	892.0	738.6
47.49	922.0	738.7
47.5	919.0	738.8
47.51	923.0	738.9
47.52	950.0	739.0
47.53	963.0	739.1
47.54	970.0	739.1
47.55	949.0	739.2
47.56	928.0	739.3
47.57	945.0	739.4
47.58	963.0	739.5
47.59	965.0	739.6
47.6	986.0	739.7
47.61	996.0	739.8
47.62	998.0	739.9
47.63	996.0	740.0
47.64	1008.0	740.1
47.65	1013.0	740.2
47.66	1033.0	740.3
47.67	1049.0	740.4
47.68	1046.0	740.5
47.69	1072.0	740.6
47.7	1078.0	740.7
47.71	1086.0	740.8
47.72	1126.0	740.9
47.73	1147.0	741.0
47.74	1159.0	741.1
47.75	1164.0	741.1
47.76	1181.0	741.2
47.77	1194.0	741.3
47.78	1197.0	741.4
47.79	1184.0	741.5
47.8	1217.0	741.6
47.81	1274.0	741.7
47.82	1282.0	741.8
47.83	1272.0	741.9
47.84	1294.0	742.0
47.85	1297.0	742.1
47.86	1297.0	742.2
47.87	1342.0	742.3
47.88	1361.0	742.4
47.89	1358.0	742.5
47.9	1353.0	742.6
47.91	1336.0	742.7
47.92	1321.0	742.8
47.93	1351.0	742.9
47.94	1373.0	743.0
47.95	1398.0	743.1
47.96	1407.0	743.1
47.97	1391.0	743.2
47.98	1382.0	743.3
47.99	1372.0	743.4
48.0	1402.0	743.5
48.01	1418.0	743.6
48.02	1403.0	743.7
48.03	1411.0	743.8
48.04	1382.0	743.9
48.05	1375.0	744.0
48.06	1407.0	744.1
48.07	1421.0	744.2
48.08	1440.0	744.3
48.09	1406.0	744.4
48.1	1382.0	744.5
48.11	1378.0	744.6
48.12	1374.0	744.7
48.13	1367.0	744.7
48.14	1353.0	744.8
48.15	1361.0	744.9
48.16	1321.0	745.0
48.17	1308.0	745.1
48.18	1332.0	745.2
48.19	1319.0	745.3
48.2	1323.0	745.4
48.21	1292.0	745.5
48.22	1269.0	745.6
48.23	1302.0	745.7
48.24	1269.0	745.8
48.25	1251.0	745.9
48.26	1283.0	746.0
48.27	1271.0	746.1
48.28	1242.0	746.1
48.29	1237.0	746.2
48.3	1206.0	746.3
48.31	1171.0	746.4
48.32	1180.0	746.5
48.33	1177.0	746.6
48.34	1159.0	746.7
48.35	1139.0	746.8
48.36	1125.0	746.9
48.37	1100.0	747.0
48.38	1070.0	747.1
48.39	1066.0	747.2
48.4	1067.0	747.3
48.41	1067.0	747.3
48.42	1054.0	747.4
48.43	1029.0	747.5
48.44	1000.0	747.6
48.45	981.0	747.7
48.46	957.0	747.8
48.47	984.0	747.9
48.48	1007.0	748.0
48.49	963.0	748.1
48.5	959.0	748.2
48.51	968.0	748.3
48.52	938.0	748.3
48.53	908.0	748.4
48.54	900.0	748.5
48.55	911.0	748.6
48.56	939.0	748.7
48.57	967.0	748.8
48.58	956.0	748.9
48.59	931.0	749.0
48.6	906.0	749.1
48.61	878.0	749.2
48.62	884.0	749.2
48.63	898.0	749.3
48.64	894.0	749.4
48.65	862.0	749.5
48.66	848.0	749.6
48.67	862.0	749.7
48.68	854.0	749.8
48.69	847.0	749.9
48.7	859.0	750.0
48.71	873.0	750.0
48.72	880.0	750.1
48.73	863.0	750.2
48.74	851.0	750.3
48.75	862.0	750.4
48.76	862.0	750.5
48.77	861.0	750.6
48.78	864.0	750.7
48.79	849.0	750.7
48.8	847.0	750.8
48.81	860.0	750.9
48.82	834.0	751.0
48.83	804.0	751.1
48.84	809.0	751.2
48.85	833.0	751.3
48.86	813.0	751.3
48.87	838.0	751.4
48.88	849.0	751.5
48.89	819.0	751.6
48.9	825.0	751.7
48.91	831.0	751.8
48.92	822.0	751.9
48.93	806.0	751.9
48.94	839.0	752.0
48.95	876.0	752.1
48.96	857.0	752.2
48.97	822.0	752.3
48.98	833.0	752.4
48.99	849.0	752.4
49.0	835.0	752.5
49.01	810.0	752.6
49.02	822.0	752.7
49.03	843.0	752.8
49.04	827.0	752.9
49.05	812.0	752.9
49.06	816.0	753.0
49.07	806.0	753.1
49.08	798.0	753.2
49.09	786.0	753.3
49.1	803.0	753.4
49.11	835.0	753.4
49.12	844.0	753.5
49.13	819.0	753.6
49.14	793.0	753.7
49.15	805.0	753.8
49.16	794.0	753.8
49.17	791.0	753.9
49.18	814.0	754.0
49.19	833.0	754.1
49.2	830.0	754.2
49.21	828.0	754.2
49.22	836.0	754.3
49.23	846.0	754.4
49.24	869.0	754.5
49.25	863.0	754.6
49.26	836.0	754.6
49.27	826.0	754.7
49.28	830.0	754.8
49.29	863.0	754.9
49.3	867.0	754.9
49.31	840.0	755.0
49.32	834.0	755.1
49.33	861.0	755.2
49.34	876.0	755.2
49.35	871.0	755.3
49.36	859.0	755.4
49.37	868.0	755.5
49.38	880.0	755.6
49.39	852.0	755.6
49.4	841.0	755.7
49.41	868.0	755.8
49.42	875.0	755.9
49.43	854.0	755.9
49.44	852.0	756.0
49.45	864.0	756.1
49.46	864.0	756.2
49.47	882.0	756.2
49.48	911.0	756.3
49.49	922.0	756.4
49.5	910.0	756.4
49.51	880.0	756.5
49.52	894.0	756.6
49.53	938.0	756.7
49.54	934.0	756.7
49.55	921.0	756.8
49.56	921.0	756.9
49.57	910.0	756.9
49.58	909.0	757.0
49.59	931.0	757.1
49.6	956.0	757.2
49.61	994.0	757.2
49.62	998.0	757.3
49.63	971.0	757.4
49.64	991.0	757.4
49.65	1022.0	757.5
49.66	1012.0	757.6
49.67	1009.0	757.6
49.68	1060.0	757.7
49.69	1101.0	757.8
49.7	1085.0	757.8
49.71	1085.0	757.9
49.72	1132.0	758.0
49.73	1178.0	758.0
49.74	1178.0	758.1
49.75	1190.0	758.2
49.76	1228.0	758.2
49.77	1263.0	758.3
49.78	1276.0	758.4
49.79	1298.0	758.4
49.8	1351.0	758.5
49.81	1380.0	758.6
49.82	1431.0	758.6
49.83	1497.0	758.7
49.84	1541.0	758.8
49.85	1615.0	758.8
49.86	1688.0	758.9
49.87	1726.0	758.9
49.88	1795.0	759.0
49.89	1897.0	759.1
49.9	1970.0	759.1
49.91	2066.0	759.2
49.92	2165.0	759.3
49.93	2241.0	759.3
49.94	2318.0	759.4
49.95	2439.0	759.4
49.96	2556.0	759.5
49.97	2673.0	759.6
49.98	2761.0	759.6
49.99	2824.0	759.7
50.0	2915.0	759.7
50.01	3000.0	759.8
50.02	3053.0	759.9
50.03	3089.0	759.9
50.04	3147.0	760.0
50.05	3181.0	760.0
50.06	3159.0	760.1
50.07	3116.0	760.1
50.08	3099.0	760.2
50.09	3085.0	760.3
50.1	3051.0	760.3
50.11	3000.0	760.4
50.12	2906.0	760.4
50.13	2836.0	760.5
50.14	2809.0	760.5
50.15	2750.0	760.6
50.16	2659.0	760.6
50.17	2530.0	760.7
50.18	2438.0	760.7
50.19	2376.0	760.8
50.2	2287.0	760.8
50.21	2214.0	760.9
50.22	2151.0	760.9
50.23	2079.0	761.0
50.24	2009.0	761.1
50.25	1924.0	761.1
50.26	1828.0	761.2
50.27	1720.0	761.2
50.28	1646.0	761.3
50.29	1616.0	761.3
50.3	1574.0	761.3
50.31	1518.0	761.4
50.32	1452.0	761.4
50.33	1411.0	761.5
50.34	1380.0	761.5
50.35	1322.0	761.6
50.36	1270.0	761.6
50.37	1230.0	761.7
50.38	1193.0	761.7
50.39	1176.0	761.8
50.4	1162.0	761.8
50.41	1138.0	761.9
50.42	1137.0	761.9
50.43	1146.0	761.9
50.44	1117.0	762.0
50.45	1083.0	762.0
50.46	1055.0	762.1
50.47	1005.0	762.1
50.48	981.0	762.2
50.49	985.0	762.2
50.5	985.0	762.2
50.51	994.0	762.3
50.52	999.0	762.3
50.53	992.0	762.4
50.54	961.0	762.4
50.55	922.0	762.4
50.56	906.0	762.5
50.57	904.0	762.5
50.58	920.0	762.6
50.59	944.0	762.6
50.6	924.0	762.6
50.61	909.0	762.7
50.62	900.0	762.7
50.63	869.0	762.8
50.64	855.0	762.8
50.65	850.0	762.8
50.66	876.0	762.9
50.67	877.0	762.9
50.68	853.0	762.9
50.69	869.0	763.0
50.7	884.0	763.0
50.71	878.0	763.0
50.72	867.0	763.1
50.73	838.0	763.1
50.74	830.0	763.1
50.75	861.0	763.2
50.76	864.0	763.2
50.77	843.0	763.2
50.78	847.0	763.2
50.79	849.0	763.3
50.8	820.0	763.3
50.81	825.0	763.3
50.82	851.0	763.4
50.83	843.0	763.4
50.84	850.0	763.4
50.85	850.0	763.4
50.86	841.0	763.5
50.87	841.0	763.5
50.88	830.0	763.5
50.89	807.0	763.6
50.9	788.0	763.6
50.91	804.0	763.6
50.92	830.0	763.6
50.93	822.0	763.6
50.94	805.0	763.7
50.95	808.0	763.7
50.96	817.0	763.7
50.97	806.0	763.7
50.98	789.0	763.8
50.99	788.0	763.8
51.0	788.0	763.8
51.01	788.0	763.8
51.02	798.0	763.8
51.03	809.0	763.9
51.04	804.0	763.9
51.05	782.0	763.9
51.06	768.0	763.9
51.07	784.0	763.9
51.08	808.0	764.0
51.09	803.0	764.0
51.1	786.0	764.0
51.11	784.0	764.0
51.12	764.0	764.0
51.13	743.0	764.0
51.14	750.0	764.0
51.15	762.0	764.1
51.16	770.0	764.1
51.17	797.0	764.1
51.18	826.0	764.1
51.19	810.0	764.1
51.2	787.0	764.1
51.21	790.0	764.1
51.22	781.0	764.1
51.23	779.0	764.2
51.24	789.0	764.2
51.25	793.0	764.2
51.26	802.0	764.2
51.27	792.0	764.2
51.28	794.0	764.2
51.29	776.0	764.2
51.3	756.0	764.2
51.31	786.0	764.2
51.32	811.0	764.2
51.33	793.0	764.2
51.34	783.0	764.2
51.35	813.0	764.2
51.36	835.0	764.2
51.37	805.0	764.2
51.38	767.0	764.2
51.39	784.0	764.3
51.4	805.0	764.3
51.41	795.0	764.3
51.42	798.0	764.3
51.43	792.0	764.3
51.44	784.0	764.3
51.45	811.0	764.3
51.46	813.0	764.3
51.47	776.0	764.3
51.48	782.0	764.2
51.49	802.0	764.2
51.5	795.0	764.2
51.51	810.0	764.2
51.52	818.0	764.2
51.53	791.0	764.2
51.54	786.0	764.2
51.55	798.0	764.2
51.56	805.0	764.2
51.57	810.0	764.2
51.58	800.0	764.2
51.59	799.0	764.2
51.6	800.0	764.2
51.61	796.0	764.2
51.62	791.0	764.2
51.63	790.0	764.2
51.64	789.0	764.1
51.65	779.0	764.1
51.66	782.0	764.1
51.67	787.0	764.1
51.68	784.0	764.1
51.69	795.0	764.1
51.7	768.0	764.1
51.71	742.0	764.1
51.72	779.0	764.0
51.73	789.0	764.0
51.74	787.0	764.0
51.75	789.0	764.0
51.76	785.0	764.0
51.77	790.0	764.0
51.78	802.0	763.9
51.79	792.0	763.9
51.8	771.0	763.9
51.81	762.0	763.9
51.82	770.0	763.9
51.83	780.0	763.8
51.84	794.0	763.8
51.85	799.0	763.8
51.86	789.0	763.8
51.87	788.0	763.7
51.88	792.0	763.7
51.89	786.0	763.7
51.9	759.0	763.7
51.91	762.0	763.7
51.92	762.0	763.6
51.93	765.0	763.6
51.94	773.0	763.6
51.95	767.0	763.5
51.96	780.0	763.5
51.97	819.0	763.5
51.98	823.0	763.5
51.99	809.0	763.4
52.0	787.0	763.4
52.01	764.0	763.4
52.02	762.0	763.3
52.03	768.0	763.3
52.04	764.0	763.3
52.05	772.0	763.2
52.06	794.0	763.2
52.07	811.0	763.2
52.08	812.0	763.1
52.09	816.0	763.1
52.1	805.0	763.1
52.11	787.0	763.0
52.12	790.0	763.0
52.13	778.0	763.0
52.14	770.0	762.9
52.15	785.0	762.9
52.16	792.0	762.9
52.17	774.0	762.8
52.18	756.0	762.8
52.19	755.0	762.7
52.2	766.0	762.7
52.21	775.0	762.7
52.22	790.0	762.6
52.23	803.0	762.6
52.24	810.0	762.5
52.25	810.0	762.5
52.26	787.0	762.5
52.27	762.0	762.4
52.28	776.0	762.4
52.29	810.0	762.3
52.3	799.0	762.3
52.31	770.0	762.2
52.32	789.0	762.2
52.33	813.0	762.2
52.34	800.0	762.1
52.35	789.0	762.1
52.36	783.0	762.0
52.37	782.0	762.0
52.38	794.0	761.9
52.39	810.0	761.9
52.4	809.0	761.8
52.41	812.0	761.8
52.42	844.0	761.7
52.43	865.0	761.7
52.44	837.0	761.6
52.45	810.0	761.6
52.46	810.0	761.5
52.47	803.0	761.5
52.48	800.0	761.4
52.49	809.0	761.4
52.5	810.0	761.3
52.51	786.0	761.3
52.52	775.0	761.2
52.53	791.0	761.2
52.54	804.0	761.1
52.55	800.0	761.0
52.56	804.0	761.0
52.57	816.0	760.9
52.58	835.0	760.9
52.59	835.0	760.8
52.6	835.0	760.8
52.61	836.0	760.7
52.62	828.0	760.7
52.63	835.0	760.6
52.64	848.0	760.5
52.65	833.0	760.5
52.66	836.0	760.4
52.67	854.0	760.4
52.68	863.0	760.3
52.69	869.0	760.2
52.7	868.0	760.2
52.71	870.0	760.1
52.72	856.0	760.1
52.73	835.0	760.0
52.74	852.0	759.9
52.75	873.0	759.9
52.76	887.0	759.8
52.77	921.0	759.7
52.78	917.0	759.7
52.79	912.0	759.6
52.8	939.0	759.5
52.81	933.0	759.5
52.82	935.0	759.4
52.83	949.0	759.4
52.84	971.0	759.3
52.85	988.0	759.2
52.86	991.0	759.2
52.87	1022.0	759.1
52.88	1053.0	759.0
52.89	1081.0	758.9
52.9	1116.0	758.9
52.91	1131.0	758.8
52.92	1187.0	758.7
52.93	1231.0	758.7
52.94	1214.0	758.6
52.95	1239.0	758.5
52.96	1289.0	758.5
52.97	1336.0	758.4
52.98	1394.0	758.3
52.99	1441.0	758.2
53.0	1440.0	758.2
53.01	1473.0	758.1
53.02	1552.0	758.0
53.03	1578.0	758.0
53.04	1562.0	757.9
53.05	1562.0	757.8
53.06	1574.0	757.7
53.07	1585.0	757.7
53.08	1575.0	757.6
53.09	1549.0	757.5
53.1	1521.0	757.4
53.11	1517.0	757.4
53.12	1512.0	757.3
53.13	1474.0	757.2
53.14	1455.0	757.1
53.15	1474.0	757.0
53.16	1426.0	757.0
53.17	1383.0	756.9
53.18	1391.0	756.8
53.19	1357.0	756.7
53.2	1311.0	756.7
53.21	1302.0	756.6
53.22	1267.0	756.5
53.23	1242.0	756.4
53.24	1231.0	756.3
53.25	1184.0	756.3
53.26	1140.0	756.2
53.27	1143.0	756.1
53.28	1160.0	756.0
53.29	1146.0	755.9
53.3	1085.0	755.9
53.31	1038.0	755.8
53.32	1031.0	755.7
53.33	1040.0	755.6
53.34	1058.0	755.5
53.35	1044.0	755.4
53.36	1012.0	755.4
53.37	1009.0	755.3
53.38	1017.0	755.2
53.39	991.0	755.1
53.4	975.0	755.0
53.41	973.0	754.9
53.42	973.0	754.8
53.43	962.0	754.8
53.44	976.0	754.7
53.45	1012.0	754.6
53.46	1027.0	754.5
53.47	996.0	754.4
53.48	982.0	754.3
53.49	1000.0	754.2
53.5	1012.0	754.2
53.51	985.0	754.1
53.52	979.0	754.0
53.53	997.0	753.9
53.54	1008.0	753.8
53.55	1009.0	753.7
53.56	1001.0	753.6
53.57	1001.0	753.5
53.58	1037.0	753.4
53.59	1056.0	753.3
53.6	1032.0	753.3
53.61	1022.0	753.2
53.62	1048.0	753.1
53.63	1052.0	753.0
53.64	1043.0	752.9
53.65	1042.0	752.8
53.66	1050.0	752.7
53.67	1051.0	752.6
53.68	1077.0	752.5
53.69	1093.0	752.4
53.7	1103.0	752.3
53.71	1118.0	752.2
53.72	1134.0	752.2
53.73	1123.0	752.1
53.74	1126.0	752.0
53.75	1159.0	751.9
53.76	1142.0	751.8
53.77	1150.0	751.7
53.78	1141.0	751.6
53.79	1118.0	751.5
53.8	1144.0	751.4
53.81	1168.0	751.3
53.82	1173.0	751.2
53.83	1169.0	751.1
53.84	1171.0	751.0
53.85	1180.0	750.9
53.86	1179.0	750.8
53.87	1162.0	750.7
53.88	1145.0	750.6
53.89	1172.0	750.5
53.9	1180.0	750.4
53.91	1152.0	750.3
53.92	1163.0	750.2
53.93	1215.0	750.1
53.94	1223.0	750.0
53.95	1189.0	749.9
53.96	1187.0	749.8
53.97	1205.0	749.7
53.98	1207.0	749.6
53.99	1213.0	749.5
54.0	1204.0	749.4
54.01	1188.0	749.3
54.02	1193.0	749.2
54.03	1211.0	749.1
54.04	1214.0	749.0
54.05	1193.0	748.9
54.06	1171.0	748.8
54.07	1189.0	748.7
54.08	1218.0	748.6
54.09	1186.0	748.5
54.1	1137.0	748.4
54.11	1134.0	748.3
54.12	1154.0	748.2
54.13	1150.0	748.1
54.14	1139.0	748.0
54.15	1161.0	747.9
54.16	1160.0	747.8
54.17	1124.0	747.7
54.18	1111.0	747.6
54.19	1137.0	747.5
54.2	1128.0	747.4
54.21	1108.0	747.3
54.22	1110.0	747.2
54.23	1118.0	747.1
54.24	1114.0	747.0
54.25	1120.0	746.9
54.26	1113.0	746.8
54.27	1070.0	746.7
54.28	1077.0	746.6
54.29	1088.0	746.5
54.3	1067.0	746.4
54.31	1058.0	746.3
54.32	1059.0	746.1
54.33	1076.0	746.0
54.34	1079.0	745.9
54.35	1066.0	745.8
54.36	1054.0	745.7
54.37	1060.0	745.6
54.38	1063.0	745.5
54.39	1058.0	745.4
54.4	1070.0	745.3
54.41	1084.0	745.2
54.42	1087.0	745.1
54.43	1068.0	745.0
54.44	1064.0	744.9
54.45	1021.0	744.8
54.46	1012.0	744.7
54.47	1031.0	744.5
54.48	1037.0	744.4
54.49	1034.0	744.3
54.5	1030.0	744.2
54.51	1006.0	744.1
54.52	1003.0	744.0
54.53	1035.0	743.9
54.54	1069.0	743.8
54.55	1073.0	743.7
54.56	1048.0	743.6
54.57	1030.0	743.5
54.58	1049.0	743.4
54.59	1051.0	743.2
54.6	1075.0	743.1
54.61	1081.0	743.0
54.62	1060.0	742.9
54.63	1045.0	742.8
54.64	1044.0	742.7
54.65	1077.0	742.6
54.66	1095.0	742.5
54.67	1065.0	742.4
54.68	1065.0	742.3
54.69	1095.0	742.1
54.7	1090.0	742.0
54.71	1088.0	741.9
54.72	1089.0	741.8
54.73	1114.0	741.7
54.74	1107.0	741.6
54.75	1090.0	741.5
54.76	1117.0	741.4
54.77	1112.0	741.3
54.78	1093.0	741.2
54.79	1117.0	741.0
54.8	1149.0	740.9
54.81	1155.0	740.8
54.82	1174.0	740.7
54.83	1189.0	740.6
54.84	1168.0	740.5
54.85	1158.0	740.4
54.86	1179.0	740.3
54.87	1195.0	740.2
54.88	1199.0	740.0
54.89	1198.0	739.9
54.9	1184.0	739.8
54.91	1180.0	739.7
54.92	1155.0	739.6
54.93	1147.0	739.5
54.94	1187.0	739.4
54.95	1226.0	739.3
54.96	1227.0	739.1
54.97	1191.0	739.0
54.98	1165.0	738.9
54.99	1175.0	738.8
55.0	1195.0	738.7
55.01	1196.0	738.6
55.02	1204.0	738.5
55.03	1227.0	738.4
55.04	1231.0	738.2
55.05	1206.0	738.1
55.06	1234.0	738.0
55.07	1294.0	737.9
55.08	1265.0	737.8
55.09	1254.0	737.7
55.1	1240.0	737.6
55.11	1194.0	737.5
55.12	1166.0	737.3
55.13	1206.0	737.2
55.14	1237.0	737.1
55.15	1238.0	737.0
55.16	1221.0	736.9
55.17	1213.0	736.8
55.18	1198.0	736.7
55.19	1191.0	736.5
55.2	1188.0	736.4
55.21	1185.0	736.3
55.22	1206.0	736.2
55.23	1217.0	736.1
55.24	1207.0	736.0
55.25	1219.0	735.9
55.26	1199.0	735.8
55.27	1168.0	735.6
55.28	1171.0	735.5
55.29	1218.0	735.4
55.3	1225.0	735.3
55.31	1199.0	735.2
55.32	1230.0	735.1
55.33	1235.0	735.0
55.34	1244.0	734.8
55.35	1250.0	734.7
55.36	1248.0	734.6
55.37	1200.0	734.5
55.38	1191.0	734.4
55.39	1230.0	734.3
55.4	1259.0	734.2
55.41	1265.0	734.1
55.42	1282.0	733.9
55.43	1296.0	733.8
55.44	1297.0	733.7
55.45	1279.0	733.6
55.46	1275.0	733.5
55.47	1300.0	733.4
55.48	1301.0	733.3
55.49	1261.0	733.1
55.5	1274.0	733.0
55.51	1321.0	732.9
55.52	1275.0	732.8
55.53	1241.0	732.7
55.54	1305.0	732.6
55.55	1314.0	732.5
55.56	1243.0	732.4
55.57	1226.0	732.2
55.58	1241.0	732.1
55.59	1242.0	732.0
55.6	1247.0	731.9
55.61	1226.0	731.8
55.62	1222.0	731.7
55.63	1226.0	731.6
55.64	1192.0	731.5
55.65	1178.0	731.3
55.66	1176.0	731.2
55.67	1134.0	731.1
55.68	1120.0	731.0
55.69	1148.0	730.9
55.7	1135.0	730.8
55.71	1105.0	730.7
55.72	1047.0	730.6
55.73	1007.0	730.4
55.74	1029.0	730.3
55.75	1034.0	730.2
55.76	1023.0	730.1
55.77	1007.0	730.0
55.78	978.0	729.9
55.79	980.0	729.8
55.8	963.0	729.7
55.81	951.0	729.5
55.82	953.0	729.4
55.83	949.0	729.3
55.84	920.0	729.2
55.85	924.0	729.1
55.86	918.0	729.0
55.87	935.0	728.9
55.88	948.0	728.8
55.89	913.0	728.6
55.9	930.0	728.5
55.91	924.0	728.4
55.92	895.0	728.3
55.93	914.0	728.2
55.94	912.0	728.1
55.95	901.0	728.0
55.96	851.0	727.9
55.97	818.0	727.8
55.98	830.0	727.7
55.99	851.0	727.5
56.0	869.0	727.4
56.01	869.0	727.3
56.02	881.0	727.2
56.03	880.0	727.1
56.04	875.0	727.0
56.05	858.0	726.9
56.06	830.0	726.8
56.07	830.0	726.7
56.08	829.0	726.6
56.09	808.0	726.4
56.1	804.0	726.3
56.11	810.0	726.2
56.12	802.0	726.1
56.13	816.0	726.0
56.14	854.0	725.9
56.15	869.0	725.8
56.16	819.0	725.7
56.17	798.0	725.6
56.18	814.0	725.5
56.19	811.0	725.4
56.2	787.0	725.2
56.21	773.0	725.1
56.22	790.0	725.0
56.23	816.0	724.9
56.24	834.0	724.8
56.25	851.0	724.7
56.26	855.0	724.6
56.27	838.0	724.5
56.28	831.0	724.4
56.29	814.0	724.3
56.3	795.0	724.2
56.31	787.0	724.1
56.32	788.0	724.0
56.33	796.0	723.9
56.34	805.0	723.7
56.35	804.0	723.6
56.36	792.0	723.5
56.37	792.0	723.4
56.38	790.0	723.3
56.39	788.0	723.2
56.4	799.0	723.1
56.41	788.0	723.0
56.42	796.0	722.9
56.43	806.0	722.8
56.44	793.0	722.7
56.45	771.0	722.6
56.46	773.0	722.5
56.47	770.0	722.4
56.48	797.0	722.3
56.49	796.0	722.2
56.5	778.0	722.1
56.51	795.0	722.0
56.52	818.0	721.9
56.53	812.0	721.8
56.54	790.0	721.7
56.55	781.0	721.6
56.56	772.0	721.5
56.57	819.0	721.4
56.58	814.0	721.3
56.59	812.0	721.1
56.6	800.0	721.0
56.61	810.0	720.9
56.62	813.0	720.8
56.63	781.0	720.7
56.64	793.0	720.6
56.65	789.0	720.5
56.66	778.0	720.4
56.67	782.0	720.3
56.68	776.0	720.2
56.69	773.0	720.1
56.7	756.0	720.0
56.71	763.0	719.9
56.72	771.0	719.8
56.73	772.0	719.7
56.74	775.0	719.6
56.75	790.0	719.5
56.76	781.0	719.4
56.77	774.0	719.3
56.78	778.0	719.2
56.79	772.0	719.2
56.8	786.0	719.1
56.81	789.0	719.0
56.82	770.0	718.9
56.83	790.0	718.8
56.84	789.0	718.7
56.85	794.0	718.6
56.86	797.0	718.5
56.87	784.0	718.4
56.88	769.0	718.3
56.89	768.0	718.2
56.9	762.0	718.1
56.91	772.0	718.0
56.92	769.0	717.9
56.93	757.0	717.8
56.94	772.0	717.7
56.95	758.0	717.6
56.96	753.0	717.5
56.97	759.0	717.4
56.98	766.0	717.3
56.99	763.0	717.2
57.0	770.0	717.1
57.01	767.0	717.1
57.02	762.0	717.0
57.03	763.0	716.9
57.04	785.0	716.8
57.05	800.0	716.7
57.06	777.0	716.6
57.07	770.0	716.5
57.08	758.0	716.4
57.09	760.0	716.3
57.1	777.0	716.2
57.11	770.0	716.1
57.12	765.0	716.0
57.13	765.0	716.0
57.14	781.0	715.9
57.15	796.0	715.8
57.16	794.0	715.7
57.17	768.0	715.6
57.18	778.0	715.5
57.19	779.0	715.4
57.2	747.0	715.3
57.21	753.0	715.2
57.22	773.0	715.2
57.23	756.0	715.1
57.24	746.0	715.0
57.25	775.0	714.9
57.26	782.0	714.8
57.27	786.0	714.7
57.28	766.0	714.6
57.29	705.0	714.6
57.3	681.0	714.5
57.31	707.0	714.4
57.32	755.0	714.3
57.33	763.0	714.2
57.34	750.0	714.1
57.35	746.0	714.1
57.36	763.0	714.0
57.37	764.0	713.9
57.38	750.0	713.8
57.39	759.0	713.7
57.4	782.0	713.6
57.41	781.0	713.6
57.42	783.0	713.5
57.43	774.0	713.4
57.44	766.0	713.3
57.45	801.0	713.2
57.46	783.0	713.2
57.47	790.0	713.1
57.48	769.0	713.0
57.49	736.0	712.9
57.5	745.0	712.8
57.51	795.0	712.8
57.52	784.0	712.7
57.53	760.0	712.6
57.54	760.0	712.5
57.55	782.0	712.4
57.56	792.0	712.4
57.57	769.0	712.3
57.58	745.0	712.2
57.59	744.0	712.1
57.6	779.0	712.1
57.61	770.0	712.0
57.62	784.0	711.9
57.63	782.0	711.8
57.64	774.0	711.8
57.65	745.0	711.7
57.66	759.0	711.6
57.67	757.0	711.5
57.68	776.0	711.5
57.69	769.0	711.4
57.7	760.0	711.3
57.71	761.0	711.2
57.72	761.0	711.2
57.73	744.0	711.1
57.74	746.0	711.0
57.75	754.0	710.9
57.76	735.0	710.9
57.77	742.0	710.8
57.78	776.0	710.7
57.79	782.0	710.7
57.8	795.0	710.6
57.81	786.0	710.5
57.82	772.0	710.4
57.83	775.0	710.4
57.84	765.0	710.3
57.85	768.0	710.2
57.86	756.0	710.2
57.87	749.0	710.1
57.88	747.0	710.0
57.89	742.0	710.0
57.9	746.0	709.9
57.91	773.0	709.8
57.92	772.0	709.7
57.93	780.0	709.7
57.94	773.0	709.6
57.95	763.0	709.5
57.96	784.0	709.5
57.97	768.0	709.4
57.98	752.0	709.3
57.99	750.0	709.3
58.0	743.0	709.2
58.01	767.0	709.1
58.02	769.0	709.1
58.03	768.0	709.0
58.04	767.0	709.0
58.05	749.0	708.9
58.06	764.0	708.8
58.07	786.0	708.8
58.08	784.0	708.7
58.09	759.0	708.6
58.1	760.0	708.6
58.11	792.0	708.5
58.12	790.0	708.4
58.13	788.0	708.4
58.14	795.0	708.3
58.15	787.0	708.3
58.16	747.0	708.2
58.17	723.0	708.1
58.18	753.0	708.1
58.19	788.0	708.0
58.2	779.0	707.9
58.21	761.0	707.9
58.22	763.0	707.8
58.23	771.0	707.8
58.24	748.0	707.7
58.25	757.0	707.6
58.26	771.0	707.6
58.27	760.0	707.5
58.28	748.0	707.5
58.29	764.0	707.4
58.3	763.0	707.4
58.31	754.0	707.3
58.32	782.0	707.2
58.33	805.0	707.2
58.34	765.0	707.1
58.35	754.0	707.1
58.36	752.0	707.0
58.37	723.0	706.9
58.38	722.0	706.9
58.39	765.0	706.8
58.4	777.0	706.8
58.41	759.0	706.7
58.42	754.0	706.7
58.43	736.0	706.6
58.44	743.0	706.6
58.45	727.0	706.5
58.46	773.0	706.4
58.47	795.0	706.4
58.48	773.0	706.3
58.49	741.0	706.3
58.5	731.0	706.2
58.51	730.0	706.2
58.52	722.0	706.1
58.53	742.0	706.1
58.54	782.0	706.0
58.55	772.0	706.0
58.56	723.0	705.9
58.57	733.0	705.9
58.58	745.0	705.8
58.59	758.0	705.8
58.6	765.0	705.7
58.61	769.0	705.7
58.62	764.0	705.6
58.63	776.0	705.5
58.64	751.0	705.5
58.65	753.0	705.4
58.66	768.0	705.4
58.67	758.0	705.3
58.68	775.0	705.3
58.69	756.0	705.2
58.7	764.0	705.2
58.71	779.0	705.1
58.72	783.0	705.1
58.73	796.0	705.1
58.74	771.0	705.0
58.75	759.0	705.0
58.76	753.0	704.9
58.77	728.0	704.9
58.78	723.0	704.8
58.79	744.0	704.8
58.8	751.0	704.7
58.81	753.0	704.7
58.82	766.0	704.6
58.83	784.0	704.6
58.84	756.0	704.5
58.85	745.0	704.5
58.86	759.0	704.4
58.87	760.0	704.4
58.88	749.0	704.3
58.89	735.0	704.3
58.9	739.0	704.3
58.91	751.0	704.2
58.92	754.0	704.2
58.93	756.0	704.1
58.94	752.0	704.1
58.95	746.0	704.0
58.96	759.0	704.0
58.97	741.0	703.9
58.98	741.0	703.9
58.99	778.0	703.9
59.0	787.0	703.8
59.01	754.0	703.8
59.02	729.0	703.7
59.03	723.0	703.7
59.04	740.0	703.6
59.05	759.0	703.6
59.06	767.0	703.6
59.07	740.0	703.5
59.08	732.0	703.5
59.09	762.0	703.4
59.1	767.0	703.4
59.11	758.0	703.3
59.12	735.0	703.3
59.13	768.0	703.3
59.14	763.0	703.2
59.15	730.0	703.2
59.16	731.0	703.1
59.17	736.0	703.1
59.18	753.0	703.1
59.19	789.0	703.0
59.2	781.0	703.0
59.21	763.0	702.9
59.22	763.0	702.9
59.23	732.0	702.9
59.24	756.0	702.8
59.25	742.0	702.8
59.26	766.0	702.8
59.27	768.0	702.7
59.28	762.0	702.7
59.29	754.0	702.6
59.3	751.0	702.6
59.31	750.0	702.6
59.32	753.0	702.5
59.33	771.0	702.5
59.34	768.0	702.5
59.35	759.0	702.4
59.36	781.0	702.4
59.37	766.0	702.3
59.38	741.0	702.3
59.39	745.0	702.3
59.4	773.0	702.2
59.41	773.0	702.2
59.42	762.0	702.2
59.43	781.0	702.1
59.44	784.0	702.1
59.45	784.0	702.1
59.46	795.0	702.0
59.47	778.0	702.0
59.48	801.0	702.0
59.49	801.0	701.9
59.5	778.0	701.9
59.51	771.0	701.9
59.52	773.0	701.8
59.53	760.0	701.8
59.54	759.0	701.8
59.55	756.0	701.7
59.56	788.0	701.7
59.57	782.0	701.7
59.58	784.0	701.6
59.59	813.0	701.6
59.6	809.0	701.6
59.61	807.0	701.5
59.62	792.0	701.5
59.63	807.0	701.5
59.64	851.0	701.4
59.65	837.0	701.4
59.66	848.0	701.4
59.67	870.0	701.3
59.68	877.0	701.3
59.69	873.0	701.3
59.7	850.0	701.2
59.71	866.0	701.2
59.72	890.0	701.2
59.73	886.0	701.2
59.74	892.0	701.1
59.75	895.0	701.1
59.76	906.0	701.1
59.77	925.0	701.0
59.78	940.0	701.0
59.79	951.0	701.0
59.8	944.0	700.9
59.81	949.0	700.9
59.82	925.0	700.9
59.83	937.0	700.9
59.84	1015.0	700.8
59.85	1022.0	700.8
59.86	1022.0	700.8
59.87	1029.0	700.7
59.88	1025.0	700.7
59.89	1076.0	700.7
59.9	1110.0	700.7
59.91	1082.0	700.6
59.92	1092.0	700.6
59.93	1029.0	700.6
59.94	1016.0	700.6
59.95	1026.0	700.5
59.96	1043.0	700.5
59.97	1018.0	700.5
59.98	994.0	700.5
59.99	1022.0	700.4
60.0	1022.0	700.4
60.01	1010.0	700.4
60.02	996.0	700.3
60.03	985.0	700.3
60.04	997.0	700.3
60.05	961.0	700.3
60.06	931.0	700.2
60.07	933.0	700.2
60.08	986.0	700.2
60.09	1016.0	700.2
60.1	976.0	700.1
60.11	932.0	700.1
60.12	905.0	700.1
60.13	891.0	700.1
60.14	888.0	700.0
60.15	870.0	700.0
60.16	887.0	700.0
60.17	887.0	700.0
60.18	859.0	700.0
60.19	875.0	699.9
60.2	875.0	699.9
60.21	846.0	699.9
60.22	846.0	699.9
60.23	837.0	699.8
60.24	842.0	699.8
60.25	855.0	699.8
60.26	859.0	699.8
60.27	839.0	699.7
60.28	822.0	699.7
60.29	815.0	699.7
60.3	801.0	699.7
60.31	818.0	699.7
60.32	804.0	699.6
60.33	809.0	699.6
60.34	814.0	699.6
60.35	829.0	699.6
60.36	813.0	699.6
60.37	825.0	699.5
60.38	789.0	699.5
60.39	794.0	699.5
60.4	774.0	699.5
60.41	783.0	699.4
60.42	794.0	699.4
60.43	800.0	699.4
60.44	837.0	699.4
60.45	840.0	699.4
60.46	817.0	699.3
60.47	793.0	699.3
60.48	807.0	699.3
60.49	820.0	699.3
60.5	800.0	699.3
60.51	776.0	699.2
60.52	817.0	699.2
60.53	819.0	699.2
60.54	817.0	699.2
60.55	810.0	699.2
60.56	800.0	699.2
60.57	806.0	699.1
60.58	819.0	699.1
60.59	822.0	699.1
60.6	807.0	699.1
60.61	836.0	699.1
60.62	802.0	699.0
60.63	774.0	699.0
60.64	791.0	699.0
60.65	811.0	699.0
60.66	795.0	699.0
60.67	755.0	699.0
60.68	745.0	698.9
60.69	783.0	698.9
60.7	830.0	698.9
60.71	815.0	698.9
60.72	799.0	698.9
60.73	760.0	698.9
60.74	742.0	698.8
60.75	751.0	698.8
60.76	762.0	698.8
60.77	762.0	698.8
60.78	771.0	698.8
60.79	778.0	698.8
60.8	767.0	698.7
60.81	780.0	698.7
60.82	785.0	698.7
60.83	769.0	698.7
60.84	766.0	698.7
60.85	769.0	698.7
60.86	797.0	698.6
60.87	799.0	698.6
60.88	773.0	698.6
60.89	789.0	698.6
60.9	781.0	698.6
60.91	762.0	698.6
60.92	777.0	698.5
60.93	763.0	698.5
60.94	768.0	698.5
60.95	767.0	698.5
60.96	751.0	698.5
60.97	770.0	698.5
60.98	765.0	698.5
60.99	796.0	698.4
61.0	771.0	698.4
61.01	769.0	698.4
61.02	801.0	698.4
61.03	784.0	698.4
61.04	763.0	698.4
61.05	754.0	698.4
61.06	758.0	698.3
61.07	796.0	698.3
61.08	781.0	698.3
61.09	769.0	698.3
61.1	765.0	698.3
61.11	763.0	698.3
61.12	762.0	698.3
61.13	805.0	698.3
61.14	815.0	698.2
61.15	818.0	698.2
61.16	792.0	698.2
61.17	794.0	698.2
61.18	795.0	698.2
61.19	798.0	698.2
61.2	776.0	698.2
61.21	794.0	698.2
61.22	800.0	698.1
61.23	773.0	698.1
61.24	767.0	698.1
61.25	795.0	698.1
61.26	769.0	698.1
61.27	752.0	698.1
61.28	766.0	698.1
61.29	763.0	698.1
61.3	742.0	698.0
61.31	768.0	698.0
61.32	774.0	698.0
61.33	777.0	698.0
61.34	791.0	698.0
61.35	784.0	698.0
61.36	753.0	698.0
61.37	752.0	698.0
61.38	796.0	698.0
61.39	796.0	697.9
61.4	801.0	697.9
61.41	818.0	697.9
61.42	815.0	697.9
61.43	808.0	697.9
61.44	805.0	697.9
61.45	777.0	697.9
61.46	776.0	697.9
61.47	786.0	697.9
61.48	820.0	697.8
61.49	831.0	697.8
61.5	799.0	697.8
61.51	782.0	697.8
61.52	813.0	697.8
61.53	801.0	697.8
61.54	809.0	697.8
61.55	811.0	697.8
61.56	817.0	697.8
61.57	804.0	697.8
61.58	825.0	697.7
61.59	828.0	697.7
61.6	825.0	697.7
61.61	818.0	697.7
61.62	825.0	697.7
61.63	810.0	697.7
61.64	828.0	697.7
61.65	824.0	697.7
61.66	814.0	697.7
61.67	810.0	697.7
61.68	810.0	697.6
61.69	839.0	697.6
61.7	860.0	697.6
61.71	837.0	697.6
61.72	873.0	697.6
61.73	859.0	697.6
61.74	840.0	697.6
61.75	838.0	697.6
61.76	854.0	697.6
61.77	864.0	697.6
61.78	870.0	697.6
61.79	899.0	697.5
61.8	899.0	697.5
61.81	917.0	697.5
61.82	907.0	697.5
61.83	933.0	697.5
61.84	891.0	697.5
61.85	905.0	697.5
61.86	909.0	697.5
61.87	945.0	697.5
61.88	944.0	697.5
61.89	973.0	697.5
61.9	983.0	697.5
61.91	939.0	697.4
61.92	958.0	697.4
61.93	959.0	697.4
61.94	951.0	697.4
61.95	983.0	697.4
61.96	1015.0	697.4
61.97	1019.0	697.4
61.98	1014.0	697.4
61.99	1085.0	697.4
62.0	1094.0	697.4
62.01	1083.0	697.4
62.02	1085.0	697.4
62.03	1098.0	697.3
62.04	1114.0	697.3
62.05	1102.0	697.3
62.06	1130.0	697.3
62.07	1130.0	697.3
62.08	1173.0	697.3
62.09	1201.0	697.3
62.1	1193.0	697.3
62.11	1222.0	697.3
62.12	1254.0	697.3
62.13	1288.0	697.3
62.14	1294.0	697.3
62.15	1263.0	697.3
62.16	1286.0	697.2
62.17	1306.0	697.2
62.18	1319.0	697.2
62.19	1341.0	697.2
62.2	1375.0	697.2
62.21	1339.0	697.2
62.22	1335.0	697.2
62.23	1339.0	697.2
62.24	1348.0	697.2
62.25	1329.0	697.2
62.26	1354.0	697.2
62.27	1316.0	697.2
62.28	1326.0	697.2
62.29	1326.0	697.2
62.3	1327.0	697.1
62.31	1307.0	697.1
62.32	1315.0	697.1
62.33	1287.0	697.1
62.34	1286.0	697.1
62.35	1274.0	697.1
62.36	1278.0	697.1
62.37	1282.0	697.1
62.38	1269.0	697.1
62.39	1251.0	697.1
62.4	1263.0	697.1
62.41	1245.0	697.1
62.42	1262.0	697.1
62.43	1246.0	697.1
62.44	1206.0	697.0
62.45	1253.0	697.0
62.46	1225.0	697.0
62.47	1226.0	697.0
62.48	1171.0	697.0
62.49	1202.0	697.0
62.5	1228.0	697.0
62.51	1197.0	697.0
62.52	1206.0	697.0
62.53	1168.0	697.0
62.54	1143.0	697.0
62.55	1196.0	697.0
62.56	1163.0	697.0
62.57	1135.0	697.0
62.58	1126.0	697.0
62.59	1156.0	696.9
62.6	1180.0	696.9
62.61	1144.0	696.9
62.62	1154.0	696.9
62.63	1184.0	696.9
62.64	1152.0	696.9
62.65	1148.0	696.9
62.66	1144.0	696.9
62.67	1127.0	696.9
62.68	1099.0	696.9
62.69	1131.0	696.9
62.7	1101.0	696.9
62.71	1118.0	696.9
62.72	1138.0	696.9
62.73	1108.0	696.8
62.74	1110.0	696.8
62.75	1136.0	696.8
62.76	1089.0	696.8
62.77	1125.0	696.8
62.78	1128.0	696.8
62.79	1106.0	696.8
62.8	1100.0	696.8
62.81	1111.0	696.8
62.82	1120.0	696.8
62.83	1112.0	696.8
62.84	1102.0	696.8
62.85	1082.0	696.8
62.86	1084.0	696.8
62.87	1062.0	696.8
62.88	1006.0	696.7
62.89	1018.0	696.7
62.9	1054.0	696.7
62.91	1076.0	696.7
62.92	1057.0	696.7
62.93	1071.0	696.7
62.94	1059.0	696.7
62.95	1027.0	696.7
62.96	1044.0	696.7
62.97	1068.0	696.7
62.98	1067.0	696.7
62.99	1021.0	696.7
63.0	1024.0	696.7
63.01	1001.0	696.7
63.02	1012.0	696.6
63.03	1005.0	696.6
63.04	980.0	696.6
63.05	969.0	696.6
63.06	984.0	696.6
63.07	1009.0	696.6
63.08	995.0	696.6
63.09	1015.0	696.6
63.1	986.0	696.6
63.11	959.0	696.6
63.12	947.0	696.6
63.13	941.0	696.6
63.14	930.0	696.6
63.15	945.0	696.6
63.16	962.0	696.5
63.17	947.0	696.5
63.18	926.0	696.5
63.19	942.0	696.5
63.2	969.0	696.5
63.21	955.0	696.5
63.22	947.0	696.5
63.23	936.0	696.5
63.24	923.0	696.5
63.25	921.0	696.5
63.26	942.0	696.5
63.27	964.0	696.5
63.28	942.0	696.5
63.29	958.0	696.4
63.3	951.0	696.4
63.31	946.0	696.4
63.32	952.0	696.4
63.33	900.0	696.4
63.34	912.0	696.4
63.35	981.0	696.4
63.36	958.0	696.4
63.37	950.0	696.4
63.38	954.0	696.4
63.39	984.0	696.4
63.4	1009.0	696.4
63.41	991.0	696.3
63.42	983.0	696.3
63.43	1023.0	696.3
63.44	1023.0	696.3
63.45	981.0	696.3
63.46	988.0	696.3
63.47	1071.0	696.3
63.48	1077.0	696.3
63.49	1046.0	696.3
63.5	1059.0	696.3
63.51	1054.0	696.3
63.52	1094.0	696.3
63.53	1120.0	696.2
63.54	1175.0	696.2
63.55	1126.0	696.2
63.56	1134.0	696.2
63.57	1150.0	696.2
63.58	1155.0	696.2
63.59	1185.0	696.2
63.6	1233.0	696.2
63.61	1262.0	696.2
63.62	1316.0	696.2
63.63	1336.0	696.2
63.64	1368.0	696.1
63.65	1362.0	696.1
63.66	1411.0	696.1
63.67	1421.0	696.1
63.68	1420.0	696.1
63.69	1415.0	696.1
63.7	1464.0	696.1
63.71	1479.0	696.1
63.72	1458.0	696.1
63.73	1430.0	696.1
63.74	1455.0	696.0
63.75	1433.0	696.0
63.76	1388.0	696.0
63.77	1383.0	696.0
63.78	1429.0	696.0
63.79	1501.0	696.0
63.8	1418.0	696.0
63.81	1340.0	696.0
63.82	1368.0	696.0
63.83	1370.0	696.0
63.84	1343.0	695.9
63.85	1357.0	695.9
63.86	1368.0	695.9
63.87	1348.0	695.9
63.88	1298.0	695.9
63.89	1268.0	695.9
63.9	1264.0	695.9
63.91	1237.0	695.9
63.92	1258.0	695.9
63.93	1241.0	695.8
63.94	1183.0	695.8
63.95	1177.0	695.8
63.96	1177.0	695.8
63.97	1152.0	695.8
63.98	1135.0	695.8
63.99	1136.0	695.8
64.0	1064.0	695.8
64.01	1023.0	695.8
64.02	1047.0	695.7
64.03	1031.0	695.7
64.04	974.0	695.7
64.05	970.0	695.7
64.06	980.0	695.7
64.07	959.0	695.7
64.08	952.0	695.7
64.09	968.0	695.7
64.1	950.0	695.6
64.11	957.0	695.6
64.12	949.0	695.6
64.13	932.0	695.6
64.14	893.0	695.6
64.15	877.0	695.6
64.16	878.0	695.6
64.17	873.0	695.6
64.18	877.0	695.5
64.19	878.0	695.5
64.2	871.0	695.5
64.21	885.0	695.5
64.22	856.0	695.5
64.23	840.0	695.5
64.24	879.0	695.5
64.25	841.0	695.5
64.26	814.0	695.4
64.27	830.0	695.4
64.28	837.0	695.4
64.29	814.0	695.4
64.3	790.0	695.4
64.31	816.0	695.4
64.32	810.0	695.4
64.33	792.0	695.3
64.34	789.0	695.3
64.35	786.0	695.3
64.36	765.0	695.3
64.37	775.0	695.3
64.38	782.0	695.3
64.39	757.0	695.3
64.4	750.0	695.2
64.41	755.0	695.2
64.42	775.0	695.2
64.43	758.0	695.2
64.44	742.0	695.2
64.45	732.0	695.2
64.46	748.0	695.1
64.47	744.0	695.1
64.48	744.0	695.1
64.49	780.0	695.1
64.5	755.0	695.1
64.51	745.0	695.1
64.52	734.0	695.0
64.53	756.0	695.0
64.54	780.0	695.0
64.55	764.0	695.0
64.56	774.0	695.0
64.57	745.0	695.0
64.58	743.0	694.9
64.59	742.0	694.9
64.6	744.0	694.9
64.61	731.0	694.9
64.62	733.0	694.9
64.63	748.0	694.9
64.64	721.0	694.8
64.65	731.0	694.8
64.66	770.0	694.8
64.67	760.0	694.8
64.68	751.0	694.8
64.69	735.0	694.8
64.7	718.0	694.7
64.71	718.0	694.7
64.72	733.0	694.7
64.73	792.0	694.7
64.74	774.0	694.7
64.75	759.0	694.6
64.76	771.0	694.6
64.77	739.0	694.6
64.78	766.0	694.6
64.79	731.0	694.6
64.8	719.0	694.6
64.81	714.0	694.5
64.82	731.0	694.5
64.83	742.0	694.5
64.84	744.0	694.5
64.85	781.0	694.5
64.86	742.0	694.4
64.87	715.0	694.4
64.88	706.0	694.4
64.89	747.0	694.4
64.9	733.0	694.4
64.91	709.0	694.3
64.92	725.0	694.3
64.93	704.0	694.3
64.94	685.0	694.3
64.95	721.0	694.2
64.96	707.0	694.2
64.97	704.0	694.2
64.98	722.0	694.2
64.99	728.0	694.2
65.0	689.0	694.1
65.01	723.0	694.1
65.02	713.0	694.1
65.03	720.0	694.1
65.04	724.0	694.1
65.05	735.0	694.0
65.06	710.0	694.0
65.07	729.0	694.0
65.08	733.0	694.0
65.09	742.0	693.9
65.1	726.0	693.9
65.11	702.0	693.9
65.12	696.0	693.9
65.13	706.0	693.8
65.14	724.0	693.8
65.15	729.0	693.8
65.16	740.0	693.8
65.17	743.0	693.8
65.18	713.0	693.7
65.19	729.0	693.7
65.2	719.0	693.7
65.21	732.0	693.7
65.22	723.0	693.6
65.23	743.0	693.6
65.24	735.0	693.6
65.25	712.0	693.6
65.26	695.0	693.5
65.27	694.0	693.5
65.28	728.0	693.5
65.29	775.0	693.5
65.3	730.0	693.4
65.31	720.0	693.4
65.32	714.0	693.4
65.33	719.0	693.4
65.34	721.0	693.3
65.35	722.0	693.3
65.36	731.0	693.3
65.37	757.0	693.3
65.38	742.0	693.2
65.39	713.0	693.2
65.4	710.0	693.2
65.41	708.0	693.1
65.42	721.0	693.1
65.43	731.0	693.1
65.44	731.0	693.1
65.45	703.0	693.0
65.46	687.0	693.0
65.47	677.0	693.0
65.48	730.0	693.0
65.49	715.0	692.9
65.5	718.0	692.9
65.51	720.0	692.9
65.52	714.0	692.8
65.53	712.0	692.8
65.54	708.0	692.8
65.55	695.0	692.8
65.56	713.0	692.7
65.57	698.0	692.7
65.58	700.0	692.7
65.59	730.0	692.6
65.6	712.0	692.6
65.61	684.0	692.6
65.62	736.0	692.6
65.63	762.0	692.5
65.64	742.0	692.5
65.65	710.0	692.5
65.66	731.0	692.4
65.67	692.0	692.4
65.68	703.0	692.4
65.69	714.0	692.4
65.7	715.0	692.3
65.71	702.0	692.3
65.72	706.0	692.3
65.73	715.0	692.2
65.74	714.0	692.2
65.75	745.0	692.2
65.76	746.0	692.1
65.77	707.0	692.1
65.78	689.0	692.1
65.79	738.0	692.0
65.8	778.0	692.0
65.81	735.0	692.0
65.82	710.0	692.0
65.83	689.0	691.9
65.84	697.0	691.9
65.85	708.0	691.9
65.86	692.0	691.8
65.87	651.0	691.8
65.88	669.0	691.8
65.89	699.0	691.7
65.9	705.0	691.7
65.91	711.0	691.7
65.92	709.0	691.6
65.93	686.0	691.6
65.94	677.0	691.6
65.95	723.0	691.5
65.96	709.0	691.5
65.97	684.0	691.5
65.98	717.0	691.4
65.99	725.0	691.4
66.0	707.0	691.4
66.01	688.0	691.3
66.02	681.0	691.3
66.03	710.0	691.3
66.04	672.0	691.2
66.05	683.0	691.2
66.06	762.0	691.2
66.07	751.0	691.1
66.08	705.0	691.1
66.09	719.0	691.1
66.1	738.0	691.0
66.11	723.0	691.0
66.12	711.0	691.0
66.13	665.0	690.9
66.14	700.0	690.9
66.15	704.0	690.9
66.16	668.0	690.8
66.17	670.0	690.8
66.18	706.0	690.8
66.19	736.0	690.7
66.2	702.0	690.7
66.21	704.0	690.6
66.22	730.0	690.6
66.23	724.0	690.6
66.24	678.0	690.5
66.25	705.0	690.5
66.26	735.0	690.5
66.27	710.0	690.4
66.28	699.0	690.4
66.29	708.0	690.4
66.3	704.0	690.3
66.31	731.0	690.3
66.32	698.0	690.2
66.33	671.0	690.2
66.34	712.0	690.2
66.35	737.0	690.1
66.36	731.0	690.1
66.37	740.0	690.1
66.38	724.0	690.0
66.39	711.0	690.0
66.4	726.0	689.9
66.41	695.0	689.9
66.42	688.0	689.9
66.43	696.0	689.8
66.44	700.0	689.8
66.45	708.0	689.8
66.46	756.0	689.7
66.47	743.0	689.7
66.48	714.0	689.6
66.49	687.0	689.6
66.5	646.0	689.6
66.51	689.0	689.5
66.52	693.0	689.5
66.53	693.0	689.4
66.54	708.0	689.4
66.55	755.0	689.4
66.56	742.0	689.3
66.57	722.0	689.3
66.58	697.0	689.3
66.59	699.0	689.2
66.6	702.0	689.2
66.61	721.0	689.1
66.62	740.0	689.1
66.63	734.0	689.1
66.64	725.0	689.0
66.65	687.0	689.0
66.66	709.0	688.9
66.67	721.0	688.9
66.68	725.0	688.9
66.69	719.0	688.8
66.7	717.0	688.8
66.71	750.0	688.7
66.72	737.0	688.7
66.73	723.0	688.6
66.74	738.0	688.6
66.75	746.0	688.6
66.76	721.0	688.5
66.77	736.0	688.5
66.78	754.0	688.4
66.79	742.0	688.4
66.8	754.0	688.4
66.81	771.0	688.3
66.82	756.0	688.3
66.83	757.0	688.2
66.84	732.0	688.2
66.85	749.0	688.1
66.86	761.0	688.1
66.87	739.0	688.1
66.88	787.0	688.0
66.89	779.0	688.0
66.9	769.0	687.9
66.91	769.0	687.9
66.92	755.0	687.9
66.93	774.0	687.8
66.94	776.0	687.8
66.95	741.0	687.7
66.96	737.0	687.7
66.97	762.0	687.6
66.98	772.0	687.6
66.99	731.0	687.5
67.0	727.0	687.5
67.01	730.0	687.5
67.02	721.0	687.4
67.03	721.0	687.4
67.04	700.0	687.3
67.05	748.0	687.3
67.06	778.0	687.2
67.07	734.0	687.2
67.08	713.0	687.2
67.09	742.0	687.1
67.1	741.0	687.1
67.11	753.0	687.0
67.12	766.0	687.0
67.13	727.0	686.9
67.14	741.0	686.9
67.15	715.0	686.8
67.16	752.0	686.8
67.17	737.0	686.7
67.18	743.0	686.7
67.19	740.0	686.7
67.2	732.0	686.6
67.21	725.0	686.6
67.22	723.0	686.5
67.23	716.0	686.5
67.24	728.0	686.4
67.25	728.0	686.4
67.26	754.0	686.3
67.27	708.0	686.3
67.28	709.0	686.2
67.29	731.0	686.2
67.3	735.0	686.2
67.31	712.0	686.1
67.32	757.0	686.1
67.33	734.0	686.0
67.34	739.0	686.0
67.35	708.0	685.9
67.36	708.0	685.9
67.37	727.0	685.8
67.38	728.0	685.8
67.39	717.0	685.7
67.4	701.0	685.7
67.41	729.0	685.6
67.42	722.0	685.6
67.43	703.0	685.5
67.44	724.0	685.5
67.45	744.0	685.4
67.46	735.0	685.4
67.47	720.0	685.3
67.48	715.0	685.3
67.49	695.0	685.3
67.5	691.0	685.2
67.51	706.0	685.2
67.52	721.0	685.1
67.53	714.0	685.1
67.54	723.0	685.0
67.55	678.0	685.0
67.56	724.0	684.9
67.57	749.0	684.9
67.58	747.0	684.8
67.59	712.0	684.8
67.6	721.0	684.7
67.61	738.0	684.7
67.62	735.0	684.6
67.63	705.0	684.6
67.64	717.0	684.5
67.65	747.0	684.5
67.66	735.0	684.4
67.67	730.0	684.4
67.68	723.0	684.3
67.69	702.0	684.3
67.7	734.0	684.2
67.71	724.0	684.2
67.72	715.0	684.1
67.73	722.0	684.1
67.74	722.0	684.0
67.75	740.0	684.0
67.76	734.0	683.9
67.77	710.0	683.9
67.78	691.0	683.8
67.79	739.0	683.8
67.8	708.0	683.7
67.81	736.0	683.7
67.82	731.0	683.6
67.83	735.0	683.6
67.84	727.0	683.5
67.85	723.0	683.5
67.86	725.0	683.4
67.87	703.0	683.4
67.88	721.0	683.3
67.89	722.0	683.3
67.9	768.0	683.2
67.91	763.0	683.2
67.92	763.0	683.1
67.93	710.0	683.0
67.94	716.0	683.0
67.95	723.0	682.9
67.96	752.0	682.9
67.97	753.0	682.8
67.98	778.0	682.8
67.99	768.0	682.7
68.0	739.0	682.7
68.01	732.0	682.6
68.02	738.0	682.6
68.03	723.0	682.5
68.04	733.0	682.5
68.05	735.0	682.4
68.06	760.0	682.4
68.07	776.0	682.3
68.08	747.0	682.3
68.09	768.0	682.2
68.1	781.0	682.2
68.11	757.0	682.1
68.12	758.0	682.0
68.13	766.0	682.0
68.14	787.0	681.9
68.15	806.0	681.9
68.16	760.0	681.8
68.17	738.0	681.8
68.18	761.0	681.7
68.19	788.0	681.7
68.2	756.0	681.6
68.21	751.0	681.6
68.22	756.0	681.5
68.23	749.0	681.5
68.24	802.0	681.4
68.25	786.0	681.3
68.26	798.0	681.3
68.27	784.0	681.2
68.28	788.0	681.2
68.29	797.0	681.1
68.3	811.0	681.1
68.31	828.0	681.0
68.32	787.0	681.0
68.33	788.0	680.9
68.34	841.0	680.8
68.35	821.0	680.8
68.36	776.0	680.7
68.37	788.0	680.7
68.38	814.0	680.6
68.39	832.0	680.6
68.4	846.0	680.5
68.41	843.0	680.5
68.42	809.0	680.4
68.43	822.0	680.3
68.44	870.0	680.3
68.45	837.0	680.2
68.46	844.0	680.2
68.47	859.0	680.1
68.48	852.0	680.1
68.49	887.0	680.0
68.5	856.0	680.0
68.51	847.0	679.9
68.52	884.0	679.8
68.53	881.0	679.8
68.54	898.0	679.7
68.55	923.0	679.7
68.56	868.0	679.6
68.57	908.0	679.6
68.58	928.0	679.5
68.59	910.0	679.4
68.6	884.0	679.4
68.61	829.0	679.3
68.62	838.0	679.3
68.63	863.0	679.2
68.64	885.0	679.2
68.65	906.0	679.1
68.66	896.0	679.0
68.67	857.0	679.0
68.68	873.0	678.9
68.69	881.0	678.9
68.7	856.0	678.8
68.71	836.0	678.8
68.72	860.0	678.7
68.73	855.0	678.6
68.74	864.0	678.6
68.75	874.0	678.5
68.76	857.0	678.5
68.77	884.0	678.4
68.78	894.0	678.3
68.79	870.0	678.3
68.8	914.0	678.2
68.81	883.0	678.2
68.82	877.0	678.1
68.83	844.0	678.1
68.84	863.0	678.0
68.85	879.0	677.9
68.86	820.0	677.9
68.87	851.0	677.8
68.88	853.0	677.8
68.89	811.0	677.7
68.9	829.0	677.6
68.91	861.0	677.6
68.92	844.0	677.5
68.93	825.0	677.5
68.94	832.0	677.4
68.95	850.0	677.3
68.96	859.0	677.3
68.97	844.0	677.2
68.98	842.0	677.2
68.99	844.0	677.1
69.0	841.0	677.0
69.01	850.0	677.0
69.02	828.0	676.9
69.03	865.0	676.9
69.04	849.0	676.8
69.05	820.0	676.7
69.06	824.0	676.7
69.07	822.0	676.6
69.08	843.0	676.6
69.09	832.0	676.5
69.1	839.0	676.4
69.11	830.0	676.4
69.12	833.0	676.3
69.13	822.0	676.3
69.14	805.0	676.2
69.15	806.0	676.1
69.16	811.0	676.1
69.17	809.0	676.0
69.18	813.0	675.9
69.19	805.0	675.9
69.2	799.0	675.8
69.21	785.0	675.8
69.22	811.0	675.7
69.23	846.0	675.6
69.24	814.0	675.6
69.25	831.0	675.5
69.26	812.0	675.5
69.27	789.0	675.4
69.28	801.0	675.3
69.29	804.0	675.3
69.3	815.0	675.2
69.31	802.0	675.1
69.32	797.0	675.1
69.33	808.0	675.0
69.34	824.0	675.0
69.35	826.0	674.9
69.36	788.0	674.8
69.37	765.0	674.8
69.38	787.0	674.7
69.39	791.0	674.6
69.4	779.0	674.6
69.41	802.0	674.5
69.42	795.0	674.5
69.43	801.0	674.4
69.44	785.0	674.3
69.45	766.0	674.3
69.46	770.0	674.2
69.47	787.0	674.1
69.48	771.0	674.1
69.49	787.0	674.0
69.5	795.0	674.0
69.51	786.0	673.9
69.52	798.0	673.8
69.53	781.0	673.8
69.54	773.0	673.7
69.55	813.0	673.6
69.56	795.0	673.6
69.57	791.0	673.5
69.58	800.0	673.4
69.59	810.0	673.4
69.6	793.0	673.3
69.61	795.0	673.3
69.62	774.0	673.2
69.63	761.0	673.1
69.64	797.0	673.1
69.65	782.0	673.0
69.66	787.0	672.9
69.67	778.0	672.9
69.68	797.0	672.8
69.69	805.0	672.7
69.7	789.0	672.7
69.71	810.0	672.6
69.72	816.0	672.6
69.73	795.0	672.5
69.74	783.0	672.4
69.75	771.0	672.4
69.76	778.0	672.3
69.77	781.0	672.2
69.78	784.0	672.2
69.79	803.0	672.1
69.8	808.0	672.0
69.81	811.0	672.0
69.82	804.0	671.9
69.83	782.0	671.8
69.84	807.0	671.8
69.85	802.0	671.7
69.86	798.0	671.6
69.87	846.0	671.6
69.88	815.0	671.5
69.89	836.0	671.4
69.9	845.0	671.4
69.91	793.0	671.3
69.92	794.0	671.2
69.93	818.0	671.2
69.94	814.0	671.1
69.95	817.0	671.1
69.96	845.0	671.0
69.97	832.0	670.9
69.98	804.0	670.9
69.99	795.0	670.8
70.0	802.0	670.7
70.01	823.0	670.7
70.02	822.0	670.6
70.03	841.0	670.5
70.04	823.0	670.5
70.05	798.0	670.4
70.06	834.0	670.3
70.07	846.0	670.3
70.08	813.0	670.2
70.09	830.0	670.1
70.1	826.0	670.1
70.11	831.0	670.0
70.12	841.0	669.9
70.13	838.0	669.9
70.14	831.0	669.8
70.15	839.0	669.7
70.16	849.0	669.7
70.17	840.0	669.6
70.18	861.0	669.5
70.19	851.0	669.5
70.2	861.0	669.4
70.21	882.0	669.3
70.22	865.0	669.3
70.23	864.0	669.2
70.24	889.0	669.1
70.25	863.0	669.1
70.26	842.0	669.0
70.27	871.0	668.9
70.28	867.0	668.9
70.29	880.0	668.8
70.3	852.0	668.7
70.31	820.0	668.6
70.32	821.0	668.6
70.33	848.0	668.5
70.34	859.0	668.4
70.35	881.0	668.4
70.36	848.0	668.3
70.37	800.0	668.2
70.38	812.0	668.2
70.39	819.0	668.1
70.4	820.0	668.0
70.41	829.0	668.0
70.42	837.0	667.9
70.43	826.0	667.8
70.44	812.0	667.8
70.45	811.0	667.7
70.46	800.0	667.6
70.47	826.0	667.6
70.48	832.0	667.5
70.49	813.0	667.4
70.5	846.0	667.4
70.51	835.0	667.3
70.52	832.0	667.2
70.53	807.0	667.1
70.54	802.0	667.1
70.55	825.0	667.0
70.56	804.0	666.9
70.57	846.0	666.9
70.58	844.0	666.8
70.59	801.0	666.7
70.6	803.0	666.7
70.61	784.0	666.6
70.62	764.0	666.5
70.63	756.0	666.5
70.64	754.0	666.4
70.65	782.0	666.3
70.66	780.0	666.3
70.67	778.0	666.2
70.68	768.0	666.1
70.69	791.0	666.0
70.7	768.0	666.0
70.71	765.0	665.9
70.72	763.0	665.8
70.73	772.0	665.8
70.74	757.0	665.7
70.75	769.0	665.6
70.76	733.0	665.6
70.77	687.0	665.5
70.78	719.0	665.4
70.79	745.0	665.3
70.8	753.0	665.3
70.81	775.0	665.2
70.82	756.0	665.1
70.83	743.0	665.1
70.84	758.0	665.0
70.85	770.0	664.9
70.86	762.0	664.9
70.87	717.0	664.8
70.88	704.0	664.7
70.89	741.0	664.6
70.9	719.0	664.6
70.91	692.0	664.5
70.92	750.0	664.4
70.93	703.0	664.4
70.94	742.0	664.3
70.95	735.0	664.2
70.96	714.0	664.2
70.97	707.0	664.1
70.98	691.0	664.0
70.99	694.0	663.9
71.0	712.0	663.9
71.01	719.0	663.8
71.02	738.0	663.7
71.03	736.0	663.7
71.04	706.0	663.6
71.05	719.0	663.5
71.06	735.0	663.4
71.07	731.0	663.4
71.08	710.0	663.3
71.09	720.0	663.2
71.1	712.0	663.2
71.11	739.0	663.1
71.12	745.0	663.0
71.13	741.0	662.9
71.14	724.0	662.9
71.15	702.0	662.8
71.16	727.0	662.7
71.17	692.0	662.7
71.18	686.0	662.6
71.19	705.0	662.5
71.2	688.0	662.4
71.21	687.0	662.4
71.22	710.0	662.3
71.23	705.0	662.2
71.24	725.0	662.2
71.25	718.0	662.1
71.26	713.0	662.0
71.27	737.0	661.9
71.28	711.0	661.9
71.29	692.0	661.8
71.3	722.0	661.7
71.31	711.0	661.7
71.32	740.0	661.6
71.33	716.0	661.5
71.34	703.0	661.4
71.35	788.0	661.4
71.36	753.0	661.3
71.37	714.0	661.2
71.38	748.0	661.2
71.39	725.0	661.1
71.4	714.0	661.0
71.41	754.0	660.9
71.42	752.0	660.9
71.43	740.0	660.8
71.44	721.0	660.7
71.45	707.0	660.6
71.46	722.0	660.6
71.47	743.0	660.5
71.48	749.0	660.4
71.49	731.0	660.4
71.5	723.0	660.3
71.51	750.0	660.2
71.52	725.0	660.1
71.53	740.0	660.1
71.54	757.0	660.0
71.55	739.0	659.9
71.56	693.0	659.8
71.57	711.0	659.8
71.58	750.0	659.7
71.59	774.0	659.6
71.6	716.0	659.6
71.61	724.0	659.5
71.62	702.0	659.4
71.63	715.0	659.3
71.64	728.0	659.3
71.65	689.0	659.2
71.66	708.0	659.1
71.67	717.0	659.0
71.68	710.0	659.0
71.69	714.0	658.9
71.7	731.0	658.8
71.71	723.0	658.8
71.72	706.0	658.7
71.73	698.0	658.6
71.74	706.0	658.5
71.75	710.0	658.5
71.76	679.0	658.4
71.77	695.0	658.3
71.78	711.0	658.2
71.79	692.0	658.2
71.8	708.0	658.1
71.81	711.0	658.0
71.82	689.0	657.9
71.83	719.0	657.9
71.84	707.0	657.8
71.85	687.0	657.7
71.86	686.0	657.7
71.87	728.0	657.6
71.88	719.0	657.5
71.89	735.0	657.4
71.9	716.0	657.4
71.91	686.0	657.3
71.92	697.0	657.2
71.93	687.0	657.1
71.94	707.0	657.1
71.95	715.0	657.0
71.96	718.0	656.9
71.97	694.0	656.8
71.98	675.0	656.8
71.99	652.0	656.7
72.0	641.0	656.6
72.01	668.0	656.5
72.02	695.0	656.5
72.03	708.0	656.4
72.04	706.0	656.3
72.05	713.0	656.2
72.06	679.0	656.2
72.07	716.0	656.1
72.08	705.0	656.0
72.09	679.0	656.0
72.1	684.0	655.9
72.11	689.0	655.8
72.12	708.0	655.7
72.13	687.0	655.7
72.14	673.0	655.6
72.15	672.0	655.5
72.16	678.0	655.4
72.17	699.0	655.4
72.18	692.0	655.3
72.19	671.0	655.2
72.2	646.0	655.1
72.21	645.0	655.1
72.22	669.0	655.0
72.23	668.0	654.9
72.24	663.0	654.8
72.25	639.0	654.8
72.26	654.0	654.7
72.27	682.0	654.6
72.28	690.0	654.5
72.29	658.0	654.5
72.3	707.0	654.4
72.31	683.0	654.3
72.32	649.0	654.2
72.33	670.0	654.2
72.34	682.0	654.1
72.35	666.0	654.0
72.36	656.0	653.9
72.37	668.0	653.9
72.38	667.0	653.8
72.39	687.0	653.7
72.4	701.0	653.6
72.41	706.0	653.6
72.42	671.0	653.5
72.43	655.0	653.4
72.44	656.0	653.3
72.45	662.0	653.3
72.46	688.0	653.2
72.47	709.0	653.1
72.48	682.0	653.0
72.49	671.0	653.0
72.5	674.0	652.9
72.51	696.0	652.8
72.52	669.0	652.7
72.53	649.0	652.7
72.54	653.0	652.6
72.55	679.0	652.5
72.56	683.0	652.4
72.57	691.0	652.4
72.58	684.0	652.3
72.59	674.0	652.2
72.6	672.0	652.1
72.61	686.0	652.1
72.62	653.0	652.0
72.63	644.0	651.9
72.64	705.0	651.8
72.65	684.0	651.8
72.66	684.0	651.7
72.67	656.0	651.6
72.68	719.0	651.5
72.69	708.0	651.5
72.7	692.0	651.4
72.71	667.0	651.3
72.72	650.0	651.2
72.73	669.0	651.2
72.74	697.0	651.1
72.75	706.0	651.0
72.76	668.0	650.9
72.77	673.0	650.9
72.78	700.0	650.8
72.79	709.0	650.7
72.8	676.0	650.6
72.81	661.0	650.6
72.82	669.0	650.5
72.83	670.0	650.4
72.84	691.0	650.3
72.85	680.0	650.3
72.86	692.0	650.2
72.87	675.0	650.1
72.88	668.0	650.0
72.89	674.0	650.0
72.9	691.0	649.9
72.91	686.0	649.8
72.92	686.0	649.7
72.93	705.0	649.7
72.94	670.0	649.6
72.95	683.0	649.5
72.96	676.0	649.4
72.97	658.0	649.3
72.98	658.0	649.3
72.99	671.0	649.2
73.0	664.0	649.1
73.01	666.0	649.0
73.02	649.0	649.0
73.03	672.0	648.9
73.04	656.0	648.8
73.05	641.0	648.7
73.06	646.0	648.7
73.07	665.0	648.6
73.08	670.0	648.5
73.09	661.0	648.4
73.1	674.0	648.4
73.11	663.0	648.3
73.12	633.0	648.2
73.13	667.0	648.1
73.14	707.0	648.1
73.15	698.0	648.0
73.16	682.0	647.9
73.17	673.0	647.8
73.18	656.0	647.8
73.19	670.0	647.7
73.2	683.0	647.6
73.21	677.0	647.5
73.22	682.0	647.5
73.23	654.0	647.4
73.24	653.0	647.3
73.25	690.0	647.2
73.26	691.0	647.2
73.27	663.0	647.1
73.28	680.0	647.0
73.29	652.0	646.9
73.3	674.0	646.9
73.31	640.0	646.8
73.32	666.0	646.7
73.33	668.0	646.6
73.34	638.0	646.6
73.35	641.0	646.5
73.36	696.0	646.4
73.37	679.0	646.3
73.38	643.0	646.3
73.39	671.0	646.2
73.4	723.0	646.1
73.41	688.0	646.0
73.42	675.0	646.0
73.43	658.0	645.9
73.44	651.0	645.8
73.45	676.0	645.7
73.46	698.0	645.7
73.47	681.0	645.6
73.48	656.0	645.5
73.49	629.0	645.4
73.5	651.0	645.4
73.51	665.0	645.3
73.52	699.0	645.2
73.53	674.0	645.1
73.54	695.0	645.1
73.55	685.0	645.0
73.56	681.0	644.9
73.57	702.0	644.8
73.58	697.0	644.8
73.59	693.0	644.7
73.6	713.0	644.6
73.61	694.0	644.5
73.62	696.0	644.5
73.63	682.0	644.4
73.64	657.0	644.3
73.65	688.0	644.2
73.66	701.0	644.2
73.67	682.0	644.1
73.68	666.0	644.0
73.69	674.0	643.9
73.7	716.0	643.9
73.71	726.0	643.8
73.72	709.0	643.7
73.73	693.0	643.6
73.74	709.0	643.6
73.75	714.0	643.5
73.76	727.0	643.4
73.77	719.0	643.3
73.78	690.0	643.3
73.79	669.0	643.2
73.8	693.0	643.1
73.81	665.0	643.0
73.82	667.0	643.0
73.83	682.0	642.9
73.84	690.0	642.8
73.85	687.0	642.7
73.86	705.0	642.7
73.87	723.0	642.6
73.88	712.0	642.5
73.89	674.0	642.5
73.9	714.0	642.4
73.91	733.0	642.3
73.92	725.0	642.2
73.93	696.0	642.2
73.94	692.0	642.1
73.95	672.0	642.0
73.96	708.0	641.9
73.97	725.0	641.9
73.98	678.0	641.8
73.99	702.0	641.7
74.0	718.0	641.6
74.01	705.0	641.6
74.02	690.0	641.5
74.03	692.0	641.4
74.04	704.0	641.3
74.05	713.0	641.3
74.06	720.0	641.2
74.07	724.0	641.1
74.08	739.0	641.1
74.09	705.0	641.0
74.1	687.0	640.9
74.11	713.0	640.8
74.12	690.0	640.8
74.13	691.0	640.7
74.14	697.0	640.6
74.15	694.0	640.5
74.16	736.0	640.5
74.17	716.0	640.4
74.18	704.0	640.3
74.19	711.0	640.2
74.2	759.0	640.2
74.21	751.0	640.1
74.22	749.0	640.0
74.23	743.0	640.0
74.24	734.0	639.9
74.25	735.0	639.8
74.26	748.0	639.7
74.27	767.0	639.7
74.28	749.0	639.6
74.29	744.0	639.5
74.3	737.0	639.4
74.31	717.0	639.4
74.32	731.0	639.3
74.33	718.0	639.2
74.34	748.0	639.2
74.35	729.0	639.1
74.36	721.0	639.0
74.37	716.0	638.9
74.38	749.0	638.9
74.39	727.0	638.8
74.4	688.0	638.7
74.41	705.0	638.6
74.42	767.0	638.6
74.43	775.0	638.5
74.44	746.0	638.4
74.45	740.0	638.4
74.46	755.0	638.3
74.47	756.0	638.2
74.48	770.0	638.1
74.49	784.0	638.1
74.5	762.0	638.0
74.51	726.0	637.9
74.52	748.0	637.9
74.53	780.0	637.8
74.54	758.0	637.7
74.55	777.0	637.6
74.56	772.0	637.6
74.57	772.0	637.5
74.58	764.0	637.4
74.59	759.0	637.4
74.6	767.0	637.3
74.61	767.0	637.2
74.62	796.0	637.1
74.63	783.0	637.1
74.64	781.0	637.0
74.65	778.0	636.9
74.66	784.0	636.9
74.67	776.0	636.8
74.68	815.0	636.7
74.69	813.0	636.6
74.7	766.0	636.6
74.71	793.0	636.5
74.72	799.0	636.4
74.73	781.0	636.4
74.74	781.0	636.3
74.75	793.0	636.2
74.76	819.0	636.2
74.77	819.0	636.1
74.78	813.0	636.0
74.79	853.0	635.9
74.8	836.0	635.9
74.81	856.0	635.8
74.82	849.0	635.7
74.83	839.0	635.7
74.84	812.0	635.6
74.85	821.0	635.5
74.86	816.0	635.5
74.87	804.0	635.4
74.88	829.0	635.3
74.89	830.0	635.2
74.9	839.0	635.2
74.91	849.0	635.1
74.92	879.0	635.0
74.93	869.0	635.0
74.94	863.0	634.9
74.95	847.0	634.8
74.96	872.0	634.8
74.97	872.0	634.7
74.98	879.0	634.6
74.99	857.0	634.5
75.0	860.0	634.5
75.01	872.0	634.4
75.02	851.0	634.3
75.03	878.0	634.3
75.04	871.0	634.2
75.05	875.0	634.1
75.06	883.0	634.1
75.07	874.0	634.0
75.08	860.0	633.9
75.09	877.0	633.9
75.1	880.0	633.8
75.11	902.0	633.7
75.12	876.0	633.7
75.13	874.0	633.6
75.14	845.0	633.5
75.15	874.0	633.5
75.16	876.0	633.4
75.17	859.0	633.3
75.18	859.0	633.2
75.19	875.0	633.2
75.2	846.0	633.1
75.21	846.0	633.0
75.22	872.0	633.0
75.23	827.0	632.9
75.24	845.0	632.8
75.25	851.0	632.8
75.26	859.0	632.7
75.27	881.0	632.6
75.28	876.0	632.6
75.29	887.0	632.5
75.3	871.0	632.4
75.31	863.0	632.4
75.32	879.0	632.3
75.33	864.0	632.2
75.34	848.0	632.2
75.35	820.0	632.1
75.36	789.0	632.0
75.37	802.0	632.0
75.38	802.0	631.9
75.39	837.0	631.8
75.4	829.0	631.8
75.41	834.0	631.7
75.42	859.0	631.6
75.43	828.0	631.6
75.44	788.0	631.5
75.45	808.0	631.4
75.46	808.0	631.4
75.47	800.0	631.3
75.48	821.0	631.2
75.49	837.0	631.2
75.5	835.0	631.1
75.51	827.0	631.1
75.52	847.0	631.0
75.53	829.0	630.9
75.54	800.0	630.9
75.55	816.0	630.8
75.56	813.0	630.7
75.57	811.0	630.7
75.58	840.0	630.6
75.59	862.0	630.5
75.6	838.0	630.5
75.61	804.0	630.4
75.62	807.0	630.3
75.63	819.0	630.3
75.64	836.0	630.2
75.65	828.0	630.1
75.66	805.0	630.1
75.67	834.0	630.0
75.68	827.0	630.0
75.69	832.0	629.9
75.7	812.0	629.8
75.71	824.0	629.8
75.72	882.0	629.7
75.73	888.0	629.6
75.74	836.0	629.6
75.75	837.0	629.5
75.76	826.0	629.4
75.77	854.0	629.4
75.78	841.0	629.3
75.79	855.0	629.3
75.8	862.0	629.2
75.81	863.0	629.1
75.82	883.0	629.1
75.83	860.0	629.0
75.84	874.0	628.9
75.85	874.0	628.9
75.86	893.0	628.8
75.87	878.0	628.8
75.88	895.0	628.7
75.89	896.0	628.6
75.9	879.0	628.6
75.91	862.0	628.5
75.92	858.0	628.4
75.93	900.0	628.4
75.94	878.0	628.3
75.95	855.0	628.3
75.96	864.0	628.2
75.97	861.0	628.1
75.98	907.0	628.1
75.99	926.0	628.0
76.0	892.0	628.0
76.01	891.0	627.9
76.02	877.0	627.8
76.03	893.0	627.8
76.04	892.0	627.7
76.05	884.0	627.7
76.06	821.0	627.6
76.07	839.0	627.5
76.08	858.0	627.5
76.09	844.0	627.4
76.1	830.0	627.3
76.11	878.0	627.3
76.12	856.0	627.2
76.13	839.0	627.2
76.14	845.0	627.1
76.15	823.0	627.0
76.16	822.0	627.0
76.17	806.0	626.9
76.18	807.0	626.9
76.19	821.0	626.8
76.2	830.0	626.8
76.21	798.0	626.7
76.22	819.0	626.6
76.23	835.0	626.6
76.24	791.0	626.5
76.25	801.0	626.5
76.26	829.0	626.4
76.27	801.0	626.3
76.28	787.0	626.3
76.29	807.0	626.2
76.3	819.0	626.2
76.31	791.0	626.1
76.32	779.0	626.1
76.33	790.0	626.0
76.34	765.0	625.9
76.35	746.0	625.9
76.36	750.0	625.8
76.37	736.0	625.8
76.38	743.0	625.7
76.39	743.0	625.6
76.4	742.0	625.6
76.41	754.0	625.5
76.42	739.0	625.5
76.43	739.0	625.4
76.44	716.0	625.4
76.45	747.0	625.3
76.46	709.0	625.3
76.47	742.0	625.2
76.48	728.0	625.1
76.49	752.0	625.1
76.5	679.0	625.0
76.51	690.0	625.0
76.52	699.0	624.9
76.53	706.0	624.9
76.54	661.0	624.8
76.55	669.0	624.7
76.56	676.0	624.7
76.57	682.0	624.6
76.58	699.0	624.6
76.59	685.0	624.5
76.6	711.0	624.5
76.61	722.0	624.4
76.62	707.0	624.4
76.63	702.0	624.3
76.64	679.0	624.3
76.65	699.0	624.2
76.66	701.0	624.1
76.67	720.0	624.1
76.68	737.0	624.0
76.69	737.0	624.0
76.7	710.0	623.9
76.71	691.0	623.9
76.72	694.0	623.8
76.73	677.0	623.8
76.74	693.0	623.7
76.75	729.0	623.7
76.76	702.0	623.6
76.77	683.0	623.6
76.78	687.0	623.5
76.79	660.0	623.5
76.8	679.0	623.4
76.81	675.0	623.3
76.82	669.0	623.3
76.83	702.0	623.2
76.84	688.0	623.2
76.85	680.0	623.1
76.86	673.0	623.1
76.87	722.0	623.0
76.88	664.0	623.0
76.89	684.0	622.9
76.9	640.0	622.9
76.91	667.0	622.8
76.92	665.0	622.8
76.93	676.0	622.7
76.94	683.0	622.7
76.95	670.0	622.6
76.96	635.0	622.6
76.97	662.0	622.5
76.98	648.0	622.5
76.99	646.0	622.4
77.0	679.0	622.4
77.01	718.0	622.3
77.02	679.0	622.3
77.03	667.0	622.2
77.04	683.0	622.2
77.05	657.0	622.1
77.06	637.0	622.1
77.07	673.0	622.0
77.08	677.0	622.0
77.09	698.0	621.9
77.1	660.0	621.9
77.11	641.0	621.8
77.12	654.0	621.8
77.13	646.0	621.7
77.14	663.0	621.7
77.15	659.0	621.6
77.16	682.0	621.6
77.17	654.0	621.5
77.18	651.0	621.5
77.19	667.0	621.4
77.2	666.0	621.4
77.21	644.0	621.4
77.22	687.0	621.3
77.23	676.0	621.3
77.24	634.0	621.2
77.25	635.0	621.2
77.26	645.0	621.1
77.27	652.0	621.1
77.28	644.0	621.0
77.29	660.0	621.0
77.3	658.0	620.9
77.31	627.0	620.9
77.32	649.0	620.8
77.33	653.0	620.8
77.34	637.0	620.7
77.35	647.0	620.7
77.36	662.0	620.7
77.37	645.0	620.6
77.38	650.0	620.6
77.39	670.0	620.5
77.4	669.0	620.5
77.41	631.0	620.4
77.42	637.0	620.4
77.43	644.0	620.3
77.44	629.0	620.3
77.45	636.0	620.3
77.46	647.0	620.2
77.47	647.0	620.2
77.48	630.0	620.1
77.49	611.0	620.1
77.5	632.0	620.0
77.51	666.0	620.0
77.52	680.0	619.9
77.53	666.0	619.9
77.54	671.0	619.9
77.55	641.0	619.8
77.56	676.0	619.8
77.57	691.0	619.7
77.58	677.0	619.7
77.59	651.0	619.7
77.6	634.0	619.6
77.61	624.0	619.6
77.62	662.0	619.5
77.63	655.0	619.5
77.64	667.0	619.4
77.65	651.0	619.4
77.66	634.0	619.4
77.67	653.0	619.3
77.68	636.0	619.3
77.69	638.0	619.2
77.7	669.0	619.2
77.71	663.0	619.2
77.72	633.0	619.1
77.73	630.0	619.1
77.74	653.0	619.0
77.75	672.0	619.0
77.76	650.0	619.0
77.77	689.0	618.9
77.78	707.0	618.9
77.79	672.0	618.8
77.8	637.0	618.8
77.81	648.0	618.8
77.82	647.0	618.7
77.83	652.0	618.7
77.84	644.0	618.6
77.85	628.0	618.6
77.86	647.0	618.6
77.87	655.0	618.5
77.88	663.0	618.5
77.89	632.0	618.5
77.9	652.0	618.4
77.91	650.0	618.4
77.92	655.0	618.3
77.93	650.0	618.3
77.94	634.0	618.3
77.95	664.0	618.2
77.96	693.0	618.2
77.97	674.0	618.2
77.98	657.0	618.1
77.99	676.0	618.1
78.0	710.0	618.1
78.01	671.0	618.0
78.02	652.0	618.0
78.03	667.0	617.9
78.04	669.0	617.9
78.05	661.0	617.9
78.06	660.0	617.8
78.07	667.0	617.8
78.08	676.0	617.8
78.09	654.0	617.7
78.1	675.0	617.7
78.11	687.0	617.7
78.12	701.0	617.6
78.13	711.0	617.6
78.14	703.0	617.6
78.15	712.0	617.5
78.16	685.0	617.5
78.17	672.0	617.5
78.18	665.0	617.4
78.19	680.0	617.4
78.2	690.0	617.4
78.21	698.0	617.3
78.22	698.0	617.3
78.23	764.0	617.3
78.24	736.0	617.2
78.25	701.0	617.2
78.26	702.0	617.2
78.27	724.0	617.1
78.28	736.0	617.1
78.29	711.0	617.1
78.3	722.0	617.0
78.31	712.0	617.0
78.32	723.0	617.0
78.33	729.0	617.0
78.34	725.0	616.9
78.35	714.0	616.9
78.36	742.0	616.9
78.37	746.0	616.8
78.38	705.0	616.8
78.39	725.0	616.8
78.4	733.0	616.7
78.41	729.0	616.7
78.42	719.0	616.7
78.43	700.0	616.7
78.44	692.0	616.6
78.45	703.0	616.6
78.46	705.0	616.6
78.47	725.0	616.5
78.48	745.0	616.5
78.49	703.0	616.5
78.5	696.0	616.5
78.51	712.0	616.4
78.52	716.0	616.4
78.53	719.0	616.4
78.54	714.0	616.3
78.55	671.0	616.3
78.56	679.0	616.3
78.57	687.0	616.3
78.58	705.0	616.2
78.59	666.0	616.2
78.6	691.0	616.2
78.61	657.0	616.2
78.62	675.0	616.1
78.63	693.0	616.1
78.64	678.0	616.1
78.65	656.0	616.1
78.66	659.0	616.0
78.67	669.0	616.0
78.68	686.0	616.0
78.69	683.0	616.0
78.7	666.0	615.9
78.71	681.0	615.9
78.72	687.0	615.9
78.73	723.0	615.9
78.74	700.0	615.8
78.75	661.0	615.8
78.76	656.0	615.8
78.77	670.0	615.8
78.78	633.0	615.7
78.79	679.0	615.7
78.8	681.0	615.7
78.81	686.0	615.7
78.82	683.0	615.7
78.83	677.0	615.6
78.84	667.0	615.6
78.85	687.0	615.6
78.86	668.0	615.6
78.87	656.0	615.6
78.88	665.0	615.5
78.89	651.0	615.5
78.9	647.0	615.5
78.91	640.0	615.5
78.92	645.0	615.4
78.93	640.0	615.4
78.94	654.0	615.4
78.95	628.0	615.4
78.96	630.0	615.4
78.97	637.0	615.4
78.98	633.0	615.3
78.99	667.0	615.3
79.0	705.0	615.3
79.01	701.0	615.3
79.02	697.0	615.3
79.03	669.0	615.2
79.04	643.0	615.2
79.05	665.0	615.2
79.06	673.0	615.2
79.07	650.0	615.2
79.08	636.0	615.2
79.09	629.0	615.1
79.1	643.0	615.1
79.11	663.0	615.1
79.12	699.0	615.1
79.13	693.0	615.1
79.14	664.0	615.1
79.15	690.0	615.0
79.16	665.0	615.0
79.17	663.0	615.0
79.18	669.0	615.0
79.19	651.0	615.0
79.2	635.0	615.0
79.21	641.0	614.9
79.22	628.0	614.9
79.23	652.0	614.9
79.24	649.0	614.9
79.25	653.0	614.9
79.26	633.0	614.9
79.27	632.0	614.9
79.28	645.0	614.8
79.29	640.0	614.8
79.3	667.0	614.8
79.31	673.0	614.8
79.32	635.0	614.8
79.33	611.0	614.8
79.34	607.0	614.8
79.35	631.0	614.8
79.36	648.0	614.7
79.37	651.0	614.7
79.38	666.0	614.7
79.39	663.0	614.7
79.4	641.0	614.7
79.41	685.0	614.7
79.42	687.0	614.7
79.43	667.0	614.7
79.44	672.0	614.7
79.45	694.0	614.6
79.46	655.0	614.6
79.47	637.0	614.6
79.48	660.0	614.6
79.49	641.0	614.6
79.5	653.0	614.6
79.51	674.0	614.6
79.52	659.0	614.6
79.53	649.0	614.6
79.54	627.0	614.6
79.55	646.0	614.6
79.56	639.0	614.5
79.57	644.0	614.5
79.58	651.0	614.5
79.59	656.0	614.5
79.6	665.0	614.5
79.61	666.0	614.5
79.62	635.0	614.5
79.63	653.0	614.5
79.64	647.0	614.5
79.65	626.0	614.5
79.66	689.0	614.5
79.67	701.0	614.5
79.68	659.0	614.5
79.69	680.0	614.5
79.7	703.0	614.5
79.71	668.0	614.5
79.72	650.0	614.4
79.73	655.0	614.4
79.74	657.0	614.4
79.75	661.0	614.4
79.76	691.0	614.4
79.77	700.0	614.4
79.78	708.0	614.4
79.79	679.0	614.4
79.8	662.0	614.4
79.81	651.0	614.4
79.82	670.0	614.4
79.83	694.0	614.4
79.84	666.0	614.4
79.85	645.0	614.4
79.86	669.0	614.4
79.87	676.0	614.4
79.88	664.0	614.4
79.89	672.0	614.4
79.9	713.0	614.4
79.91	703.0	614.4
79.92	681.0	614.4
79.93	669.0	614.4
79.94	664.0	614.4
79.95	690.0	614.4
79.96	673.0	614.4
79.97	663.0	614.4
79.98	688.0	614.4
79.99	689.0	614.4
80.0	685.0	614.4
80.01	693.0	614.4
80.02	697.0	614.4
80.03	697.0	614.4
80.04	693.0	614.4
80.05	695.0	614.4
80.06	720.0	614.4
80.07	746.0	614.4
80.08	705.0	614.4
80.09	705.0	614.4
80.1	726.0	614.4
80.11	690.0	614.4
80.12	694.0	614.4
80.13	725.0	614.4
80.14	751.0	614.4
80.15	751.0	614.4
80.16	765.0	614.4
80.17	774.0	614.4
80.18	804.0	614.4
80.19	821.0	614.4
80.2	790.0	614.4
80.21	764.0	614.4
80.22	774.0	614.4
80.23	811.0	614.4
80.24	841.0	614.4
80.25	831.0	614.4
80.26	821.0	614.4
80.27	835.0	614.4
80.28	847.0	614.4
80.29	847.0	614.4
80.3	871.0	614.4
80.31	859.0	614.4
80.32	867.0	614.4
80.33	858.0	614.4
80.34	862.0	614.5
80.35	887.0	614.5
80.36	903.0	614.5
80.37	868.0	614.5
80.38	880.0	614.5
80.39	887.0	614.5
80.4	883.0	614.5
80.41	860.0	614.5
80.42	855.0	614.5
80.43	892.0	614.5
80.44	856.0	614.5
80.45	856.0	614.5
80.46	850.0	614.5
80.47	857.0	614.5
80.48	836.0	614.5
80.49	876.0	614.5
80.5	862.0	614.5
80.51	851.0	614.5
80.52	830.0	614.6
80.53	841.0	614.6
80.54	852.0	614.6
80.55	857.0	614.6
80.56	854.0	614.6
80.57	844.0	614.6
80.58	839.0	614.6
80.59	826.0	614.6
80.6	835.0	614.6
80.61	823.0	614.6
80.62	798.0	614.6
80.63	806.0	614.6
80.64	837.0	614.7
80.65	837.0	614.7
80.66	793.0	614.7
80.67	755.0	614.7
80.68	754.0	614.7
80.69	765.0	614.7
80.7	748.0	614.7
80.71	761.0	614.7
80.72	747.0	614.7
80.73	755.0	614.7
80.74	773.0	614.7
80.75	767.0	614.8
80.76	729.0	614.8
80.77	721.0	614.8
80.78	732.0	614.8
80.79	742.0	614.8
80.8	711.0	614.8
80.81	730.0	614.8
80.82	751.0	614.8
80.83	747.0	614.8
80.84	738.0	614.8
80.85	747.0	614.9
80.86	735.0	614.9
80.87	695.0	614.9
80.88	733.0	614.9
80.89	734.0	614.9
80.9	718.0	614.9
80.91	687.0	614.9
80.92	730.0	614.9
80.93	736.0	614.9
80.94	715.0	615.0
80.95	711.0	615.0
80.96	692.0	615.0
80.97	693.0	615.0
80.98	697.0	615.0
80.99	718.0	615.0
81.0	714.0	615.0
81.01	654.0	615.0
81.02	668.0	615.1
81.03	670.0	615.1
81.04	658.0	615.1
81.05	655.0	615.1
81.06	656.0	615.1
81.07	684.0	615.1
81.08	693.0	615.1
81.09	670.0	615.2
81.1	687.0	615.2
81.11	692.0	615.2
81.12	706.0	615.2
81.13	700.0	615.2
81.14	695.0	615.2
81.15	675.0	615.2
81.16	694.0	615.2
81.17	693.0	615.3
81.18	712.0	615.3
81.19	724.0	615.3
81.2	703.0	615.3
81.21	665.0	615.3
81.22	666.0	615.3
81.23	714.0	615.3
81.24	703.0	615.4
81.25	683.0	615.4
81.26	705.0	615.4
81.27	726.0	615.4
81.28	711.0	615.4
81.29	677.0	615.4
81.3	697.0	615.5
81.31	688.0	615.5
81.32	671.0	615.5
81.33	700.0	615.5
81.34	681.0	615.5
81.35	665.0	615.5
81.36	689.0	615.5
81.37	679.0	615.6
81.38	681.0	615.6
81.39	679.0	615.6
81.4	679.0	615.6
81.41	688.0	615.6
81.42	689.0	615.6
81.43	677.0	615.7
81.44	659.0	615.7
81.45	654.0	615.7
81.46	673.0	615.7
81.47	686.0	615.7
81.48	698.0	615.7
81.49	690.0	615.8
81.5	667.0	615.8
81.51	660.0	615.8
81.52	703.0	615.8
81.53	730.0	615.8
81.54	691.0	615.8
81.55	687.0	615.9
81.56	676.0	615.9
81.57	667.0	615.9
81.58	686.0	615.9
81.59	678.0	615.9
81.6	647.0	615.9
81.61	668.0	616.0
81.62	688.0	616.0
81.63	668.0	616.0
81.64	656.0	616.0
81.65	709.0	616.0
81.66	679.0	616.0
81.67	655.0	616.1
81.68	666.0	616.1
81.69	689.0	616.1
81.7	715.0	616.1
81.71	678.0	616.1
81.72	677.0	616.2
81.73	649.0	616.2
81.74	665.0	616.2
81.75	669.0	616.2
81.76	655.0	616.2
81.77	660.0	616.2
81.78	686.0	616.3
81.79	688.0	616.3
81.8	690.0	616.3
81.81	695.0	616.3
81.82	707.0	616.3
81.83	696.0	616.4
81.84	670.0	616.4
81.85	697.0	616.4
81.86	692.0	616.4
81.87	675.0	616.4
81.88	680.0	616.5
81.89	677.0	616.5
81.9	706.0	616.5
81.91	694.0	616.5
81.92	680.0	616.5
81.93	696.0	616.5
81.94	674.0	616.6
81.95	666.0	616.6
81.96	666.0	616.6
81.97	680.0	616.6
81.98	672.0	616.6
81.99	675.0	616.7
82.0	687.0	616.7
82.01	685.0	616.7
82.02	690.0	616.7
82.03	683.0	616.7
82.04	678.0	616.8
82.05	678.0	616.8
82.06	689.0	616.8
82.07	692.0	616.8
82.08	702.0	616.8
82.09	701.0	616.9
82.1	693.0	616.9
82.11	710.0	616.9
82.12	713.0	616.9
82.13	711.0	616.9
82.14	719.0	617.0
82.15	717.0	617.0
82.16	687.0	617.0
82.17	699.0	617.0
82.18	691.0	617.0
82.19	707.0	617.1
82.2	711.0	617.1
82.21	714.0	617.1
82.22	716.0	617.1
82.23	714.0	617.1
82.24	712.0	617.2
82.25	723.0	617.2
82.26	712.0	617.2
82.27	693.0	617.2
82.28	697.0	617.2
82.29	724.0	617.3
82.3	734.0	617.3
82.31	753.0	617.3
82.32	746.0	617.3
82.33	721.0	617.3
82.34	734.0	617.4
82.35	712.0	617.4
82.36	707.0	617.4
82.37	717.0	617.4
82.38	718.0	617.4
82.39	734.0	617.5
82.4	736.0	617.5
82.41	753.0	617.5
82.42	736.0	617.5
82.43	776.0	617.5
82.44	758.0	617.6
82.45	739.0	617.6
82.46	739.0	617.6
82.47	753.0	617.6
82.48	751.0	617.6
82.49	757.0	617.7
82.5	761.0	617.7
82.51	744.0	617.7
82.52	765.0	617.7
82.53	767.0	617.7
82.54	749.0	617.8
82.55	777.0	617.8
82.56	784.0	617.8
82.57	757.0	617.8
82.58	770.0	617.8
82.59	761.0	617.9
82.6	762.0	617.9
82.61	726.0	617.9
82.62	715.0	617.9
82.63	745.0	618.0
82.64	778.0	618.0
82.65	798.0	618.0
82.66	759.0	618.0
82.67	759.0	618.0
82.68	763.0	618.1
82.69	729.0	618.1
82.7	714.0	618.1
82.71	739.0	618.1
82.72	757.0	618.1
82.73	769.0	618.2
82.74	783.0	618.2
82.75	769.0	618.2
82.76	745.0	618.2
82.77	766.0	618.2
82.78	767.0	618.3
82.79	777.0	618.3
82.8	815.0	618.3
82.81	835.0	618.3
82.82	799.0	618.3
82.83	756.0	618.4
82.84	765.0	618.4
82.85	777.0	618.4
82.86	750.0	618.4
82.87	729.0	618.4
82.88	741.0	618.5
82.89	747.0	618.5
82.9	745.0	618.5
82.91	778.0	618.5
82.92	768.0	618.5
82.93	752.0	618.6
82.94	753.0	618.6
82.95	757.0	618.6
82.96	790.0	618.6
82.97	803.0	618.6
82.98	767.0	618.7
82.99	752.0	618.7
83.0	757.0	618.7
83.01	747.0	618.7
83.02	760.0	618.8
83.03	732.0	618.8
83.04	719.0	618.8
83.05	715.0	618.8
83.06	742.0	618.8
83.07	728.0	618.9
83.08	698.0	618.9
83.09	715.0	618.9
83.1	715.0	618.9
83.11	678.0	618.9
83.12	695.0	619.0
83.13	731.0	619.0
83.14	755.0	619.0
83.15	752.0	619.0
83.16	748.0	619.0
83.17	733.0	619.0
83.18	726.0	619.1
83.19	735.0	619.1
83.2	722.0	619.1
83.21	735.0	619.1
83.22	735.0	619.1
83.23	716.0	619.2
83.24	736.0	619.2
83.25	761.0	619.2
83.26	751.0	619.2
83.27	709.0	619.2
83.28	712.0	619.3
83.29	734.0	619.3
83.3	726.0	619.3
83.31	712.0	619.3
83.32	731.0	619.3
83.33	711.0	619.4
83.34	724.0	619.4
83.35	718.0	619.4
83.36	708.0	619.4
83.37	736.0	619.4
83.38	734.0	619.5
83.39	699.0	619.5
83.4	706.0	619.5
83.41	701.0	619.5
83.42	728.0	619.5
83.43	719.0	619.6
83.44	696.0	619.6
83.45	691.0	619.6
83.46	696.0	619.6
83.47	699.0	619.6
83.48	706.0	619.6
83.49	693.0	619.7
83.5	694.0	619.7
83.51	698.0	619.7
83.52	684.0	619.7
83.53	665.0	619.7
83.54	692.0	619.8
83.55	705.0	619.8
83.56	688.0	619.8
83.57	688.0	619.8
83.58	693.0	619.8
83.59	695.0	619.8
83.6	703.0	619.9
83.61	696.0	619.9
83.62	708.0	619.9
83.63	692.0	619.9
83.64	716.0	619.9
83.65	690.0	619.9
83.66	670.0	620.0
83.67	671.0	620.0
83.68	666.0	620.0
83.69	702.0	620.0
83.7	702.0	620.0
83.71	692.0	620.1
83.72	685.0	620.1
83.73	695.0	620.1
83.74	679.0	620.1
83.75	680.0	620.1
83.76	688.0	620.1
83.77	660.0	620.2
83.78	669.0	620.2
83.79	652.0	620.2
83.8	661.0	620.2
83.81	674.0	620.2
83.82	693.0	620.2
83.83	684.0	620.3
83.84	682.0	620.3
83.85	685.0	620.3
83.86	719.0	620.3
83.87	701.0	620.3
83.88	690.0	620.3
83.89	684.0	620.4
83.9	695.0	620.4
83.91	691.0	620.4
83.92	675.0	620.4
83.93	700.0	620.4
83.94	692.0	620.4
83.95	708.0	620.4
83.96	697.0	620.5
83.97	716.0	620.5
83.98	712.0	620.5
83.99	719.0	620.5
84.0	730.0	620.5
84.01	755.0	620.5
84.02	777.0	620.6
84.03	741.0	620.6
84.04	761.0	620.6
84.05	775.0	620.6
84.06	776.0	620.6
84.07	781.0	620.6
84.08	788.0	620.6
84.09	804.0	620.7
84.1	780.0	620.7
84.11	781.0	620.7
84.12	805.0	620.7
84.13	760.0	620.7
84.14	775.0	620.7
84.15	780.0	620.7
84.16	801.0	620.8
84.17	775.0	620.8
84.18	759.0	620.8
84.19	735.0	620.8
84.2	729.0	620.8
84.21	777.0	620.8
84.22	764.0	620.8
84.23	736.0	620.8
84.24	747.0	620.9
84.25	766.0	620.9
84.26	761.0	620.9
84.27	728.0	620.9
84.28	727.0	620.9
84.29	754.0	620.9
84.3	758.0	620.9
84.31	754.0	620.9
84.32	732.0	621.0
84.33	728.0	621.0
84.34	763.0	621.0
84.35	754.0	621.0
84.36	740.0	621.0
84.37	688.0	621.0
84.38	709.0	621.0
84.39	710.0	621.0
84.4	723.0	621.0
84.41	758.0	621.1
84.42	748.0	621.1
84.43	732.0	621.1
84.44	719.0	621.1
84.45	689.0	621.1
84.46	692.0	621.1
84.47	706.0	621.1
84.48	715.0	621.1
84.49	718.0	621.1
84.5	694.0	621.2
84.51	678.0	621.2
84.52	684.0	621.2
84.53	670.0	621.2
84.54	688.0	621.2
84.55	669.0	621.2
84.56	661.0	621.2
84.57	662.0	621.2
84.58	662.0	621.2
84.59	661.0	621.2
84.6	659.0	621.3
84.61	688.0	621.3
84.62	688.0	621.3
84.63	658.0	621.3
84.64	641.0	621.3
84.65	664.0	621.3
84.66	659.0	621.3
84.67	638.0	621.3
84.68	627.0	621.3
84.69	646.0	621.3
84.7	663.0	621.3
84.71	695.0	621.3
84.72	694.0	621.4
84.73	671.0	621.4
84.74	704.0	621.4
84.75	695.0	621.4
84.76	668.0	621.4
84.77	617.0	621.4
84.78	615.0	621.4
84.79	623.0	621.4
84.8	638.0	621.4
84.81	626.0	621.4
84.82	638.0	621.4
84.83	645.0	621.4
84.84	617.0	621.4
84.85	618.0	621.4
84.86	643.0	621.4
84.87	629.0	621.5
84.88	627.0	621.5
84.89	650.0	621.5
84.9	633.0	621.5
84.91	628.0	621.5
84.92	652.0	621.5
84.93	660.0	621.5
84.94	649.0	621.5
84.95	633.0	621.5
84.96	649.0	621.5
84.97	655.0	621.5
84.98	653.0	621.5
84.99	634.0	621.5
85.0	627.0	621.5
85.01	632.0	621.5
85.02	637.0	621.5
85.03	636.0	621.5
85.04	671.0	621.5
85.05	685.0	621.5
85.06	661.0	621.5
85.07	649.0	621.5
85.08	647.0	621.5
85.09	658.0	621.5
85.1	646.0	621.5
85.11	637.0	621.5
85.12	617.0	621.5
85.13	626.0	621.5
85.14	620.0	621.6
85.15	629.0	621.6
85.16	664.0	621.6
85.17	667.0	621.6
85.18	674.0	621.6
85.19	664.0	621.6
85.2	611.0	621.6
85.21	595.0	621.6
85.22	632.0	621.6
85.23	638.0	621.6
85.24	615.0	621.6
85.25	629.0	621.6
85.26	636.0	621.6
85.27	663.0	621.6
85.28	689.0	621.6
85.29	680.0	621.6
85.3	649.0	621.6
85.31	627.0	621.6
85.32	633.0	621.6
85.33	636.0	621.6
85.34	624.0	621.6
85.35	643.0	621.6
85.36	643.0	621.6
85.37	628.0	621.6
85.38	641.0	621.5
85.39	638.0	621.5
85.4	648.0	621.5
85.41	629.0	621.5
85.42	637.0	621.5
85.43	625.0	621.5
85.44	614.0	621.5
85.45	614.0	621.5
85.46	631.0	621.5
85.47	632.0	621.5
85.48	629.0	621.5
85.49	625.0	621.5
85.5	609.0	621.5
85.51	626.0	621.5
85.52	642.0	621.5
85.53	647.0	621.5
85.54	641.0	621.5
85.55	649.0	621.5
85.56	663.0	621.5
85.57	655.0	621.5
85.58	643.0	621.5
85.59	657.0	621.5
85.6	683.0	621.5
85.61	676.0	621.5
85.62	655.0	621.5
85.63	634.0	621.5
85.64	670.0	621.5
85.65	674.0	621.4
85.66	663.0	621.4
85.67	666.0	621.4
85.68	663.0	621.4
85.69	679.0	621.4
85.7	680.0	621.4
85.71	669.0	621.4
85.72	656.0	621.4
85.73	676.0	621.4
85.74	657.0	621.4
85.75	659.0	621.4
85.76	644.0	621.4
85.77	655.0	621.4
85.78	678.0	621.4
85.79	649.0	621.4
85.8	662.0	621.3
85.81	692.0	621.3
85.82	679.0	621.3
85.83	675.0	621.3
85.84	667.0	621.3
85.85	686.0	621.3
85.86	677.0	621.3
85.87	679.0	621.3
85.88	688.0	621.3
85.89	693.0	621.3
85.9	713.0	621.3
85.91	720.0	621.2
85.92	704.0	621.2
85.93	713.0	621.2
85.94	707.0	621.2
85.95	725.0	621.2
85.96	738.0	621.2
85.97	730.0	621.2
85.98	741.0	621.2
85.99	742.0	621.2
86.0	743.0	621.2
86.01	731.0	621.1
86.02	735.0	621.1
86.03	699.0	621.1
86.04	728.0	621.1
86.05	775.0	621.1
86.06	778.0	621.1
86.07	772.0	621.1
86.08	767.0	621.1
86.09	763.0	621.1
86.1	767.0	621.0
86.11	774.0	621.0
86.12	760.0	621.0
86.13	772.0	621.0
86.14	763.0	621.0
86.15	761.0	621.0
86.16	756.0	621.0
86.17	762.0	621.0
86.18	757.0	620.9
86.19	768.0	620.9
86.2	767.0	620.9
86.21	776.0	620.9
86.22	756.0	620.9
86.23	753.0	620.9
86.24	764.0	620.9
86.25	771.0	620.9
86.26	791.0	620.8
86.27	780.0	620.8
86.28	760.0	620.8
86.29	773.0	620.8
86.3	772.0	620.8
86.31	754.0	620.8
86.32	739.0	620.8
86.33	754.0	620.7
86.34	758.0	620.7
86.35	758.0	620.7
86.36	755.0	620.7
86.37	760.0	620.7
86.38	764.0	620.7
86.39	715.0	620.7
86.4	682.0	620.6
86.41	697.0	620.6
86.42	724.0	620.6
86.43	731.0	620.6
86.44	736.0	620.6
86.45	735.0	620.6
86.46	768.0	620.5
86.47	734.0	620.5
86.48	724.0	620.5
86.49	746.0	620.5
86.5	736.0	620.5
86.51	711.0	620.5
86.52	717.0	620.5
86.53	713.0	620.4
86.54	696.0	620.4
86.55	691.0	620.4
86.56	708.0	620.4
86.57	702.0	620.4
86.58	669.0	620.3
86.59	651.0	620.3
86.6	699.0	620.3
86.61	704.0	620.3
86.62	702.0	620.3
86.63	698.0	620.3
86.64	693.0	620.2
86.65	686.0	620.2
86.66	672.0	620.2
86.67	691.0	620.2
86.68	682.0	620.2
86.69	684.0	620.2
86.7	670.0	620.1
86.71	664.0	620.1
86.72	685.0	620.1
86.73	687.0	620.1
86.74	692.0	620.1
86.75	685.0	620.0
86.76	658.0	620.0
86.77	654.0	620.0
86.78	657.0	620.0
86.79	668.0	620.0
86.8	668.0	619.9
86.81	646.0	619.9
86.82	630.0	619.9
86.83	637.0	619.9
86.84	662.0	619.9
86.85	663.0	619.8
86.86	662.0	619.8
86.87	650.0	619.8
86.88	664.0	619.8
86.89	664.0	619.8
86.9	665.0	619.7
86.91	686.0	619.7
86.92	688.0	619.7
86.93	686.0	619.7
86.94	673.0	619.7
86.95	673.0	619.6
86.96	671.0	619.6
86.97	668.0	619.6
86.98	686.0	619.6
86.99	702.0	619.6
87.0	692.0	619.5
87.01	683.0	619.5
87.02	672.0	619.5
87.03	665.0	619.5
87.04	672.0	619.4
87.05	679.0	619.4
87.06	693.0	619.4
87.07	681.0	619.4
87.08	668.0	619.4
87.09	679.0	619.3
87.1	671.0	619.3
87.11	668.0	619.3
87.12	673.0	619.3
87.13	692.0	619.2
87.14	686.0	619.2
87.15	685.0	619.2
87.16	695.0	619.2
87.17	690.0	619.2
87.18	689.0	619.1
87.19	694.0	619.1
87.2	709.0	619.1
87.21	739.0	619.1
87.22	736.0	619.0
87.23	704.0	619.0
87.24	725.0	619.0
87.25	744.0	619.0
87.26	730.0	618.9
87.27	706.0	618.9
87.28	720.0	618.9
87.29	713.0	618.9
87.3	720.0	618.8
87.31	739.0	618.8
87.32	746.0	618.8
87.33	746.0	618.8
87.34	729.0	618.8
87.35	731.0	618.7
87.36	748.0	618.7
87.37	770.0	618.7
87.38	780.0	618.7
87.39	759.0	618.6
87.4	738.0	618.6
87.41	750.0	618.6
87.42	762.0	618.6
87.43	763.0	618.5
87.44	776.0	618.5
87.45	777.0	618.5
87.46	795.0	618.5
87.47	783.0	618.4
87.48	792.0	618.4
87.49	785.0	618.4
87.5	772.0	618.3
87.51	780.0	618.3
87.52	807.0	618.3
87.53	803.0	618.3
87.54	797.0	618.2
87.55	796.0	618.2
87.56	791.0	618.2
87.57	779.0	618.2
87.58	764.0	618.1
87.59	762.0	618.1
87.6	774.0	618.1
87.61	760.0	618.1
87.62	749.0	618.0
87.63	746.0	618.0
87.64	771.0	618.0
87.65	774.0	618.0
87.66	770.0	617.9
87.67	771.0	617.9
87.68	751.0	617.9
87.69	727.0	617.8
87.7	759.0	617.8
87.71	777.0	617.8
87.72	777.0	617.8
87.73	776.0	617.7
87.74	772.0	617.7
87.75	761.0	617.7
87.76	748.0	617.7
87.77	739.0	617.6
87.78	734.0	617.6
87.79	728.0	617.6
87.8	727.0	617.5
87.81	727.0	617.5
87.82	721.0	617.5
87.83	751.0	617.5
87.84	753.0	617.4
87.85	715.0	617.4
87.86	716.0	617.4
87.87	733.0	617.4
87.88	737.0	617.3
87.89	715.0	617.3
87.9	704.0	617.3
87.91	720.0	617.2
87.92	707.0	617.2
87.93	718.0	617.2
87.94	713.0	617.2
87.95	713.0	617.1
87.96	704.0	617.1
87.97	681.0	617.1
87.98	683.0	617.0
87.99	678.0	617.0
88.0	668.0	617.0
88.01	677.0	616.9
88.02	688.0	616.9
88.03	683.0	616.9
88.04	684.0	616.9
88.05	688.0	616.8
88.06	674.0	616.8
88.07	647.0	616.8
88.08	631.0	616.7
88.09	640.0	616.7
88.1	675.0	616.7
88.11	684.0	616.7
88.12	633.0	616.6
88.13	639.0	616.6
88.14	675.0	616.6
88.15	673.0	616.5
88.16	640.0	616.5
88.17	635.0	616.5
88.18	664.0	616.4
88.19	673.0	616.4
88.2	652.0	616.4
88.21	631.0	616.4
88.22	635.0	616.3
88.23	666.0	616.3
88.24	683.0	616.3
88.25	661.0	616.2
88.26	645.0	616.2
88.27	658.0	616.2
88.28	656.0	616.1
88.29	637.0	616.1
88.3	640.0	616.1
88.31	654.0	616.1
88.32	648.0	616.0
88.33	622.0	616.0
88.34	634.0	616.0
88.35	651.0	615.9
88.36	652.0	615.9
88.37	640.0	615.9
88.38	635.0	615.8
88.39	645.0	615.8
88.4	661.0	615.8
88.41	647.0	615.7
88.42	622.0	615.7
88.43	628.0	615.7
88.44	634.0	615.6
88.45	624.0	615.6
88.46	616.0	615.6
88.47	620.0	615.6
88.48	617.0	615.5
88.49	616.0	615.5
88.5	622.0	615.5
88.51	636.0	615.4
88.52	643.0	615.4
88.53	629.0	615.4
88.54	616.0	615.3
88.55	620.0	615.3
88.56	625.0	615.3
88.57	635.0	615.2
88.58	645.0	615.2
88.59	668.0	615.2
88.6	657.0	615.1
88.61	631.0	615.1
88.62	612.0	615.1
88.63	631.0	615.0
88.64	649.0	615.0
88.65	642.0	615.0
88.66	641.0	615.0
88.67	640.0	614.9
88.68	625.0	614.9
88.69	625.0	614.9
88.7	627.0	614.8
88.71	604.0	614.8
88.72	596.0	614.8
88.73	611.0	614.7
88.74	628.0	614.7
88.75	632.0	614.7
88.76	631.0	614.6
88.77	629.0	614.6
88.78	621.0	614.6
88.79	615.0	614.5
88.8	643.0	614.5
88.81	642.0	614.5
88.82	627.0	614.4
88.83	633.0	614.4
88.84	648.0	614.4
88.85	637.0	614.3
88.86	610.0	614.3
88.87	609.0	614.3
88.88	618.0	614.2
88.89	625.0	614.2
88.9	621.0	614.2
88.91	617.0	614.1
88.92	610.0	614.1
88.93	612.0	614.1
88.94	632.0	614.0
88.95	638.0	614.0
88.96	606.0	614.0
88.97	635.0	613.9
88.98	648.0	613.9
88.99	615.0	613.9
89.0	615.0	613.8
89.01	633.0	613.8
89.02	629.0	613.8
89.03	636.0	613.7
89.04	644.0	613.7
89.05	632.0	613.7
89.06	639.0	613.6
89.07	654.0	613.6
89.08	657.0	613.6
89.09	653.0	613.5
89.1	632.0	613.5
89.11	619.0	613.5
89.12	651.0	613.4
89.13	643.0	613.4
89.14	631.0	613.4
89.15	644.0	613.3
89.16	653.0	613.3
89.17	634.0	613.3
89.18	613.0	613.2
89.19	624.0	613.2
89.2	623.0	613.2
89.21	616.0	613.1
89.22	627.0	613.1
89.23	659.0	613.1
89.24	663.0	613.0
89.25	648.0	613.0
89.26	640.0	613.0
89.27	644.0	612.9
89.28	660.0	612.9
89.29	653.0	612.9
89.3	625.0	612.8
89.31	615.0	612.8
89.32	613.0	612.8
89.33	629.0	612.7
89.34	646.0	612.7
89.35	643.0	612.7
89.36	638.0	612.6
89.37	638.0	612.6
89.38	653.0	612.6
89.39	653.0	612.5
89.4	646.0	612.5
89.41	656.0	612.5
89.42	654.0	612.4
89.43	644.0	612.4
89.44	627.0	612.4
89.45	653.0	612.3
89.46	675.0	612.3
89.47	649.0	612.3
89.48	648.0	612.2
89.49	656.0	612.2
89.5	638.0	612.2
89.51	644.0	612.1
89.52	664.0	612.1
89.53	682.0	612.1
89.54	685.0	612.0
89.55	682.0	612.0
89.56	666.0	612.0
89.57	661.0	611.9
89.58	659.0	611.9
89.59	673.0	611.9
89.6	682.0	611.8
89.61	651.0	611.8
89.62	637.0	611.8
89.63	630.0	611.7
89.64	650.0	611.7
89.65	680.0	611.7
89.66	675.0	611.6
89.67	671.0	611.6
89.68	684.0	611.6
89.69	656.0	611.5
89.7	642.0	611.5
89.71	667.0	611.5
89.72	686.0	611.4
89.73	685.0	611.4
89.74	698.0	611.4
89.75	696.0	611.3
89.76	726.0	611.3
89.77	733.0	611.3
89.78	708.0	611.2
89.79	693.0	611.2
89.8	709.0	611.2
89.81	734.0	611.1
89.82	715.0	611.1
89.83	695.0	611.0
89.84	694.0	611.0
89.85	701.0	611.0
89.86	711.0	610.9
89.87	723.0	610.9
89.88	723.0	610.9
89.89	726.0	610.8
89.9	722.0	610.8
89.91	693.0	610.8
89.92	690.0	610.7
89.93	704.0	610.7
89.94	685.0	610.7
89.95	694.0	610.6
89.96	705.0	610.6
89.97	680.0	610.6
89.98	680.0	610.5
89.99	698.0	610.5
90.0	701.0	610.5
90.01	688.0	610.4
90.02	673.0	610.4
90.03	701.0	610.4
90.04	698.0	610.3
90.05	679.0	610.3
90.06	691.0	610.3
90.07	684.0	610.2
90.08	693.0	610.2
90.09	711.0	610.2
90.1	699.0	610.1
90.11	681.0	610.1
90.12	657.0	610.1
90.13	638.0	610.0
90.14	652.0	610.0
90.15	678.0	610.0
90.16	674.0	609.9
90.17	654.0	609.9
90.18	643.0	609.9
90.19	645.0	609.8
90.2	671.0	609.8
90.21	697.0	609.8
90.22	690.0	609.7
90.23	685.0	609.7
90.24	670.0	609.7
90.25	642.0	609.6
90.26	653.0	609.6
90.27	668.0	609.6
90.28	662.0	609.5
90.29	669.0	609.5
90.3	675.0	609.5
90.31	672.0	609.4
90.32	679.0	609.4
90.33	677.0	609.4
90.34	650.0	609.3
90.35	644.0	609.3
90.36	655.0	609.3
90.37	640.0	609.2
90.38	639.0	609.2
90.39	656.0	609.2
90.4	635.0	609.1
90.41	621.0	609.1
90.42	637.0	609.1
90.43	652.0	609.0
90.44	632.0	609.0
90.45	631.0	609.0
90.46	664.0	608.9
90.47	652.0	608.9
90.48	619.0	608.9
90.49	611.0	608.8
90.5	611.0	608.8
90.51	617.0	608.8
90.52	633.0	608.7
90.53	631.0	608.7
90.54	625.0	608.7
90.55	633.0	608.6
90.56	647.0	608.6
90.57	654.0	608.6
90.58	669.0	608.6
90.59	691.0	608.5
90.6	684.0	608.5
90.61	654.0	608.5
90.62	642.0	608.4
90.63	651.0	608.4
90.64	656.0	608.4
90.65	653.0	608.3
90.66	630.0	608.3
90.67	632.0	608.3
90.68	633.0	608.2
90.69	627.0	608.2
90.7	631.0	608.2
90.71	622.0	608.1
90.72	623.0	608.1
90.73	637.0	608.1
90.74	637.0	608.0
90.75	627.0	608.0
90.76	623.0	608.0
90.77	636.0	607.9
90.78	662.0	607.9
90.79	662.0	607.9
90.8	646.0	607.8
90.81	636.0	607.8
90.82	650.0	607.8
90.83	653.0	607.8
90.84	631.0	607.7
90.85	638.0	607.7
90.86	655.0	607.7
90.87	645.0	607.6
90.88	614.0	607.6
90.89	612.0	607.6
90.9	645.0	607.5
90.91	663.0	607.5
90.92	646.0	607.5
90.93	635.0	607.4
90.94	639.0	607.4
90.95	636.0	607.4
90.96	644.0	607.3
90.97	647.0	607.3
90.98	646.0	607.3
90.99	652.0	607.3
91.0	645.0	607.2
91.01	651.0	607.2
91.02	655.0	607.2
91.03	648.0	607.1
91.04	634.0	607.1
91.05	627.0	607.1
91.06	631.0	607.0
91.07	636.0	607.0
91.08	666.0	607.0
91.09	657.0	606.9
91.1	629.0	606.9
91.11	636.0	606.9
91.12	639.0	606.9
91.13	636.0	606.8
91.14	634.0	606.8
91.15	647.0	606.8
91.16	658.0	606.7
91.17	643.0	606.7
91.18	648.0	606.7
91.19	671.0	606.6
91.2	658.0	606.6
91.21	632.0	606.6
91.22	614.0	606.6
91.23	632.0	606.5
91.24	664.0	606.5
91.25	660.0	606.5
91.26	646.0	606.4
91.27	657.0	606.4
91.28	657.0	606.4
91.29	656.0	606.3
91.3	663.0	606.3
91.31	671.0	606.3
91.32	654.0	606.3
91.33	643.0	606.2
91.34	651.0	606.2
91.35	662.0	606.2
91.36	680.0	606.1
91.37	660.0	606.1
91.38	651.0	606.1
91.39	662.0	606.1
91.4	662.0	606.0
91.41	660.0	606.0
91.42	668.0	606.0
91.43	676.0	605.9
91.44	681.0	605.9
91.45	681.0	605.9
91.46	674.0	605.9
91.47	678.0	605.8
91.48	685.0	605.8
91.49	675.0	605.8
91.5	658.0	605.7
91.51	653.0	605.7
91.52	654.0	605.7
91.53	665.0	605.7
91.54	667.0	605.6
91.55	671.0	605.6
91.56	681.0	605.6
91.57	692.0	605.6
91.58	681.0	605.5
91.59	669.0	605.5
91.6	690.0	605.5
91.61	684.0	605.4
91.62	661.0	605.4
91.63	664.0	605.4
91.64	676.0	605.4
91.65	675.0	605.3
91.66	668.0	605.3
91.67	673.0	605.3
91.68	683.0	605.3
91.69	692.0	605.2
91.7	696.0	605.2
91.71	702.0	605.2
91.72	703.0	605.1
91.73	695.0	605.1
91.74	707.0	605.1
91.75	712.0	605.1
91.76	697.0	605.0
91.77	680.0	605.0
91.78	677.0	605.0
91.79	691.0	605.0
91.8	678.0	604.9
91.81	647.0	604.9
91.82	646.0	604.9
91.83	667.0	604.9
91.84	675.0	604.8
91.85	681.0	604.8
91.86	684.0	604.8
91.87	661.0	604.8
91.88	643.0	604.7
91.89	655.0	604.7
91.9	663.0	604.7
91.91	655.0	604.7
91.92	661.0	604.6
91.93	687.0	604.6
91.94	675.0	604.6
91.95	662.0	604.6
91.96	668.0	604.5
91.97	667.0	604.5
91.98	655.0	604.5
91.99	650.0	604.5
92.0	657.0	604.4
92.01	637.0	604.4
92.02	624.0	604.4
92.03	645.0	604.4
92.04	656.0	604.3
92.05	631.0	604.3
92.06	612.0	604.3
92.07	626.0	604.3
92.08	646.0	604.2
92.09	661.0	604.2
92.1	663.0	604.2
92.11	653.0	604.2
92.12	643.0	604.1
92.13	644.0	604.1
92.14	636.0	604.1
92.15	621.0	604.1
92.16	620.0	604.0
92.17	617.0	604.0
92.18	614.0	604.0
92.19	627.0	604.0
92.2	629.0	604.0
92.21	622.0	603.9
92.22	649.0	603.9
92.23	670.0	603.9
92.24	665.0	603.9
92.25	650.0	603.8
92.26	630.0	603.8
92.27	625.0	603.8
92.28	637.0	603.8
92.29	631.0	603.8
92.3	616.0	603.7
92.31	620.0	603.7
92.32	632.0	603.7
92.33	639.0	603.7
92.34	633.0	603.6
92.35	639.0	603.6
92.36	645.0	603.6
92.37	618.0	603.6
92.38	610.0	603.6
92.39	636.0	603.5
92.4	623.0	603.5
92.41	597.0	603.5
92.42	614.0	603.5
92.43	644.0	603.5
92.44	629.0	603.4
92.45	624.0	603.4
92.46	657.0	603.4
92.47	655.0	603.4
92.48	635.0	603.4
92.49	616.0	603.3
92.5	611.0	603.3
92.51	612.0	603.3
92.52	622.0	603.3
92.53	629.0	603.3
92.54	619.0	603.2
92.55	615.0	603.2
92.56	614.0	603.2
92.57	633.0	603.2
92.58	661.0	603.2
92.59	655.0	603.1
92.6	628.0	603.1
92.61	622.0	603.1
92.62	647.0	603.1
92.63	662.0	603.1
92.64	630.0	603.0
92.65	629.0	603.0
92.66	665.0	603.0
92.67	669.0	603.0
92.68	630.0	603.0
92.69	607.0	603.0
92.7	623.0	602.9
92.71	651.0	602.9
92.72	651.0	602.9
92.73	630.0	602.9
92.74	613.0	602.9
92.75	620.0	602.8
92.76	642.0	602.8
92.77	623.0	602.8
92.78	607.0	602.8
92.79	605.0	602.8
92.8	594.0	602.8
92.81	604.0	602.7
92.82	636.0	602.7
92.83	634.0	602.7
92.84	617.0	602.7
92.85	620.0	602.7
92.86	632.0	602.7
92.87	654.0	602.6
92.88	648.0	602.6
92.89	635.0	602.6
92.9	636.0	602.6
92.91	644.0	602.6
92.92	653.0	602.6
92.93	662.0	602.5
92.94	674.0	602.5
92.95	674.0	602.5
92.96	655.0	602.5
92.97	642.0	602.5
92.98	656.0	602.5
92.99	647.0	602.5
93.0	630.0	602.4
93.01	627.0	602.4
93.02	649.0	602.4
93.03	656.0	602.4
93.04	653.0	602.4
93.05	659.0	602.4
93.06	661.0	602.4
93.07	650.0	602.3
93.08	652.0	602.3
93.09	630.0	602.3
93.1	611.0	602.3
93.11	637.0	602.3
93.12	674.0	602.3
93.13	674.0	602.3
93.14	662.0	602.2
93.15	639.0	602.2
93.16	629.0	602.2
93.17	657.0	602.2
93.18	676.0	602.2
93.19	664.0	602.2
93.2	645.0	602.2
93.21	647.0	602.2
93.22	642.0	602.1
93.23	634.0	602.1
93.24	631.0	602.1
93.25	619.0	602.1
93.26	647.0	602.1
93.27	645.0	602.1
93.28	629.0	602.1
93.29	632.0	602.1
93.3	656.0	602.0
93.31	655.0	602.0
93.32	638.0	602.0
93.33	665.0	602.0
93.34	681.0	602.0
93.35	662.0	602.0
93.36	643.0	602.0
93.37	646.0	602.0
93.38	664.0	602.0
93.39	677.0	601.9
93.4	666.0	601.9
93.41	660.0	601.9
93.42	659.0	601.9
93.43	650.0	601.9
93.44	634.0	601.9
93.45	662.0	601.9
93.46	676.0	601.9
93.47	664.0	601.9
93.48	644.0	601.9
93.49	640.0	601.8
93.5	660.0	601.8
93.51	686.0	601.8
93.52	671.0	601.8
93.53	652.0	601.8
93.54	657.0	601.8
93.55	672.0	601.8
93.56	675.0	601.8
93.57	680.0	601.8
93.58	673.0	601.8
93.59	663.0	601.8
93.6	668.0	601.7
93.61	650.0	601.7
93.62	654.0	601.7
93.63	640.0	601.7
93.64	632.0	601.7
93.65	659.0	601.7
93.66	683.0	601.7
93.67	698.0	601.7
93.68	701.0	601.7
93.69	681.0	601.7
93.7	683.0	601.7
93.71	681.0	601.7
93.72	671.0	601.6
93.73	647.0	601.6
93.74	656.0	601.6
93.75	683.0	601.6
93.76	682.0	601.6
93.77	659.0	601.6
93.78	677.0	601.6
93.79	716.0	601.6
93.8	693.0	601.6
93.81	689.0	601.6
93.82	705.0	601.6
93.83	659.0	601.6
93.84	658.0	601.6
93.85	679.0	601.6
93.86	687.0	601.5
93.87	685.0	601.5
93.88	657.0	601.5
93.89	654.0	601.5
93.9	637.0	601.5
93.91	641.0	601.5
93.92	659.0	601.5
93.93	670.0	601.5
93.94	643.0	601.5
93.95	627.0	601.5
93.96	661.0	601.5
93.97	674.0	601.5
93.98	669.0	601.5
93.99	667.0	601.5
94.0	678.0	601.5
94.01	704.0	601.5
94.02	691.0	601.5
94.03	687.0	601.5
94.04	672.0	601.5
94.05	679.0	601.4
94.06	680.0	601.4
94.07	674.0	601.4
94.08	673.0	601.4
94.09	668.0	601.4
94.1	673.0	601.4
94.11	685.0	601.4
94.12	678.0	601.4
94.13	680.0	601.4
94.14	666.0	601.4
94.15	663.0	601.4
94.16	692.0	601.4
94.17	696.0	601.4
94.18	693.0	601.4
94.19	696.0	601.4
94.2	684.0	601.4
94.21	678.0	601.4
94.22	682.0	601.4
94.23	709.0	601.4
94.24	748.0	601.4
94.25	730.0	601.4
94.26	695.0	601.4
94.27	687.0	601.4
94.28	704.0	601.4
94.29	701.0	601.4
94.3	693.0	601.4
94.31	694.0	601.4
94.32	722.0	601.4
94.33	725.0	601.4
94.34	726.0	601.4
94.35	720.0	601.4
94.36	727.0	601.4
94.37	732.0	601.3
94.38	712.0	601.3
94.39	718.0	601.3
94.4	718.0	601.3
94.41	699.0	601.3
94.42	700.0	601.3
94.43	716.0	601.3
94.44	741.0	601.3
94.45	732.0	601.3
94.46	731.0	601.3
94.47	737.0	601.3
94.48	735.0	601.3
94.49	735.0	601.3
94.5	717.0	601.3
94.51	716.0	601.3
94.52	717.0	601.3
94.53	722.0	601.3
94.54	723.0	601.3
94.55	723.0	601.3
94.56	704.0	601.3
94.57	687.0	601.3
94.58	710.0	601.3
94.59	728.0	601.3
94.6	724.0	601.3
94.61	705.0	601.3
94.62	715.0	601.3
94.63	718.0	601.3
94.64	717.0	601.3
94.65	699.0	601.3
94.66	705.0	601.3
94.67	704.0	601.3
94.68	704.0	601.3
94.69	714.0	601.3
94.7	703.0	601.3
94.71	696.0	601.3
94.72	688.0	601.3
94.73	716.0	601.3
94.74	712.0	601.3
94.75	707.0	601.3
94.76	715.0	601.3
94.77	723.0	601.3
94.78	720.0	601.3
94.79	726.0	601.4
94.8	724.0	601.4
94.81	723.0	601.4
94.82	728.0	601.4
94.83	717.0	601.4
94.84	707.0	601.4
94.85	704.0	601.4
94.86	725.0	601.4
94.87	718.0	601.4
94.88	708.0	601.4
94.89	686.0	601.4
94.9	694.0	601.4
94.91	697.0	601.4
94.92	674.0	601.4
94.93	656.0	601.4
94.94	688.0	601.4
94.95	696.0	601.4
94.96	693.0	601.4
94.97	695.0	601.4
94.98	701.0	601.4
94.99	717.0	601.4
95.0	727.0	601.4
95.01	711.0	601.4
95.02	708.0	601.4
95.03	696.0	601.4
95.04	699.0	601.4
95.05	727.0	601.4
95.06	726.0	601.4
95.07	714.0	601.4
95.08	707.0	601.4
95.09	724.0	601.4
95.1	710.0	601.4
95.11	726.0	601.4
95.12	747.0	601.4
95.13	725.0	601.5
95.14	724.0	601.5
95.15	721.0	601.5
95.16	694.0	601.5
95.17	707.0	601.5
95.18	694.0	601.5
95.19	702.0	601.5
95.2	692.0	601.5
95.21	696.0	601.5
95.22	703.0	601.5
95.23	708.0	601.5
95.24	703.0	601.5
95.25	712.0	601.5
95.26	700.0	601.5
95.27	686.0	601.5
95.28	704.0	601.5
95.29	698.0	601.5
95.3	692.0	601.5
95.31	707.0	601.5
95.32	704.0	601.5
95.33	692.0	601.6
95.34	699.0	601.6
95.35	701.0	601.6
95.36	683.0	601.6
95.37	703.0	601.6
95.38	700.0	601.6
95.39	693.0	601.6
95.4	718.0	601.6
95.41	685.0	601.6
95.42	682.0	601.6
95.43	705.0	601.6
95.44	688.0	601.6
95.45	680.0	601.6
95.46	688.0	601.6
95.47	700.0	601.6
95.48	691.0	601.6
95.49	656.0	601.7
95.5	663.0	601.7
95.51	656.0	601.7
95.52	655.0	601.7
95.53	686.0	601.7
95.54	690.0	601.7
95.55	675.0	601.7
95.56	666.0	601.7
95.57	671.0	601.7
95.58	668.0	601.7
95.59	657.0	601.7
95.6	662.0	601.7
95.61	708.0	601.7
95.62	695.0	601.7
95.63	679.0	601.8
95.64	690.0	601.8
95.65	673.0	601.8
95.66	659.0	601.8
95.67	670.0	601.8
95.68	657.0	601.8
95.69	662.0	601.8
95.7	677.0	601.8
95.71	707.0	601.8
95.72	732.0	601.8
95.73	695.0	601.8
95.74	684.0	601.8
95.75	693.0	601.9
95.76	693.0	601.9
95.77	672.0	601.9
95.78	663.0	601.9
95.79	662.0	601.9
95.8	683.0	601.9
95.81	689.0	601.9
95.82	683.0	601.9
95.83	657.0	601.9
95.84	659.0	601.9
95.85	669.0	601.9
95.86	654.0	602.0
95.87	670.0	602.0
95.88	681.0	602.0
95.89	662.0	602.0
95.9	641.0	602.0
95.91	670.0	602.0
95.92	658.0	602.0
95.93	679.0	602.0
95.94	667.0	602.0
95.95	676.0	602.0
95.96	660.0	602.0
95.97	684.0	602.1
95.98	657.0	602.1
95.99	665.0	602.1
96.0	643.0	602.1
96.01	647.0	602.1
96.02	662.0	602.1
96.03	679.0	602.1
96.04	654.0	602.1
96.05	675.0	602.1
96.06	670.0	602.2
96.07	686.0	602.2
96.08	680.0	602.2
96.09	678.0	602.2
96.1	678.0	602.2
96.11	666.0	602.2
96.12	682.0	602.2
96.13	661.0	602.2
96.14	647.0	602.2
96.15	671.0	602.2
96.16	675.0	602.3
96.17	667.0	602.3
96.18	658.0	602.3
96.19	659.0	602.3
96.2	665.0	602.3
96.21	673.0	602.3
96.22	657.0	602.3
96.23	657.0	602.3
96.24	641.0	602.4
96.25	664.0	602.4
96.26	669.0	602.4
96.27	651.0	602.4
96.28	640.0	602.4
96.29	650.0	602.4
96.3	678.0	602.4
96.31	693.0	602.4
96.32	663.0	602.4
96.33	660.0	602.5
96.34	700.0	602.5
96.35	672.0	602.5
96.36	670.0	602.5
96.37	677.0	602.5
96.38	645.0	602.5
96.39	631.0	602.5
96.4	633.0	602.5
96.41	631.0	602.6
96.42	629.0	602.6
96.43	630.0	602.6
96.44	630.0	602.6
96.45	643.0	602.6
96.46	647.0	602.6
96.47	659.0	602.6
96.48	659.0	602.6
96.49	666.0	602.7
96.5	663.0	602.7
96.51	641.0	602.7
96.52	633.0	602.7
96.53	652.0	602.7
96.54	630.0	602.7
96.55	622.0	602.7
96.56	621.0	602.7
96.57	650.0	602.8
96.58	658.0	602.8
96.59	637.0	602.8
96.6	665.0	602.8
96.61	647.0	602.8
96.62	623.0	602.8
96.63	619.0	602.8
96.64	621.0	602.9
96.65	668.0	602.9
96.66	648.0	602.9
96.67	650.0	602.9
96.68	650.0	602.9
96.69	652.0	602.9
96.7	635.0	602.9
96.71	648.0	603.0
96.72	635.0	603.0
96.73	627.0	603.0
96.74	637.0	603.0
96.75	637.0	603.0
96.76	637.0	603.0
96.77	631.0	603.0
96.78	642.0	603.1
96.79	607.0	603.1
96.8	621.0	603.1
96.81	629.0	603.1
96.82	627.0	603.1
96.83	624.0	603.1
96.84	619.0	603.1
96.85	613.0	603.2
96.86	623.0	603.2
96.87	630.0	603.2
96.88	639.0	603.2
96.89	668.0	603.2
96.9	669.0	603.2
96.91	670.0	603.2
96.92	673.0	603.3
96.93	657.0	603.3
96.94	627.0	603.3
96.95	640.0	603.3
96.96	650.0	603.3
96.97	644.0	603.3
96.98	636.0	603.3
96.99	636.0	603.4
97.0	645.0	603.4
97.01	658.0	603.4
97.02	668.0	603.4
97.03	654.0	603.4
97.04	659.0	603.4
97.05	633.0	603.5
97.06	648.0	603.5
97.07	672.0	603.5
97.08	666.0	603.5
97.09	636.0	603.5
97.1	621.0	603.5
97.11	641.0	603.6
97.12	644.0	603.6
97.13	631.0	603.6
97.14	644.0	603.6
97.15	662.0	603.6
97.16	667.0	603.6
97.17	662.0	603.6
97.18	633.0	603.7
97.19	633.0	603.7
97.2	663.0	603.7
97.21	657.0	603.7
97.22	631.0	603.7
97.23	599.0	603.7
97.24	623.0	603.8
97.25	621.0	603.8
97.26	635.0	603.8
97.27	651.0	603.8
97.28	659.0	603.8
97.29	665.0	603.8
97.3	628.0	603.9
97.31	624.0	603.9
97.32	623.0	603.9
97.33	626.0	603.9
97.34	626.0	603.9
97.35	648.0	603.9
97.36	661.0	604.0
97.37	647.0	604.0
97.38	618.0	604.0
97.39	617.0	604.0
97.4	630.0	604.0
97.41	635.0	604.0
97.42	619.0	604.1
97.43	589.0	604.1
97.44	614.0	604.1
97.45	622.0	604.1
97.46	625.0	604.1
97.47	625.0	604.2
97.48	636.0	604.2
97.49	648.0	604.2
97.5	644.0	604.2
97.51	653.0	604.2
97.52	649.0	604.2
97.53	637.0	604.3
97.54	667.0	604.3
97.55	677.0	604.3
97.56	677.0	604.3
97.57	662.0	604.3
97.58	660.0	604.3
97.59	638.0	604.4
97.6	650.0	604.4
97.61	660.0	604.4
97.62	635.0	604.4
97.63	644.0	604.4
97.64	655.0	604.5
97.65	673.0	604.5
97.66	672.0	604.5
97.67	642.0	604.5
97.68	628.0	604.5
97.69	597.0	604.5
97.7	605.0	604.6
97.71	643.0	604.6
97.72	651.0	604.6
97.73	637.0	604.6
97.74	642.0	604.6
97.75	643.0	604.7
97.76	648.0	604.7
97.77	660.0	604.7
97.78	637.0	604.7
97.79	630.0	604.7
97.8	643.0	604.7
97.81	639.0	604.8
97.82	647.0	604.8
97.83	663.0	604.8
97.84	671.0	604.8
97.85	681.0	604.8
97.86	713.0	604.9
97.87	658.0	604.9
97.88	640.0	604.9
97.89	649.0	604.9
97.9	675.0	604.9
97.91	657.0	605.0
97.92	637.0	605.0
97.93	651.0	605.0
97.94	637.0	605.0
97.95	625.0	605.0
97.96	619.0	605.0
97.97	664.0	605.1
97.98	659.0	605.1
97.99	637.0	605.1
98.0	642.0	605.1
98.01	659.0	605.1
98.02	687.0	605.2
98.03	679.0	605.2
98.04	663.0	605.2
98.05	666.0	605.2
98.06	646.0	605.2
98.07	644.0	605.3
98.08	639.0	605.3
98.09	675.0	605.3
98.1	672.0	605.3
98.11	684.0	605.3
98.12	659.0	605.4
98.13	655.0	605.4
98.14	640.0	605.4
98.15	651.0	605.4
98.16	655.0	605.4
98.17	656.0	605.5
98.18	646.0	605.5
98.19	659.0	605.5
98.2	656.0	605.5
98.21	676.0	605.5
98.22	684.0	605.6
98.23	681.0	605.6
98.24	624.0	605.6
98.25	628.0	605.6
98.26	632.0	605.6
98.27	663.0	605.7
98.28	678.0	605.7
98.29	665.0	605.7
98.3	680.0	605.7
98.31	683.0	605.7
98.32	674.0	605.8
98.33	659.0	605.8
98.34	637.0	605.8
98.35	647.0	605.8
98.36	648.0	605.8
98.37	644.0	605.9
98.38	653.0	605.9
98.39	657.0	605.9
98.4	648.0	605.9
98.41	638.0	605.9
98.42	676.0	606.0
98.43	700.0	606.0
98.44	680.0	606.0
98.45	677.0	606.0
98.46	687.0	606.0
98.47	651.0	606.1
98.48	672.0	606.1
98.49	646.0	606.1
98.5	651.0	606.1
98.51	649.0	606.1
98.52	645.0	606.2
98.53	658.0	606.2
98.54	650.0	606.2
98.55	670.0	606.2
98.56	660.0	606.2
98.57	639.0	606.3
98.58	621.0	606.3
98.59	625.0	606.3
98.6	632.0	606.3
98.61	681.0	606.3
98.62	668.0	606.4
98.63	685.0	606.4
98.64	693.0	606.4
98.65	664.0	606.4
98.66	634.0	606.4
98.67	616.0	606.5
98.68	651.0	606.5
98.69	664.0	606.5
98.7	657.0	606.5
98.71	684.0	606.6
98.72	660.0	606.6
98.73	648.0	606.6
98.74	666.0	606.6
98.75	664.0	606.6
98.76	643.0	606.7
98.77	635.0	606.7
98.78	664.0	606.7
98.79	672.0	606.7
98.8	680.0	606.7
98.81	658.0	606.8
98.82	640.0	606.8
98.83	638.0	606.8
98.84	661.0	606.8
98.85	630.0	606.8
98.86	626.0	606.9
98.87	637.0	606.9
98.88	644.0	606.9
98.89	675.0	606.9
98.9	666.0	607.0
98.91	662.0	607.0
98.92	623.0	607.0
98.93	625.0	607.0
98.94	632.0	607.0
98.95	666.0	607.1
98.96	647.0	607.1
98.97	653.0	607.1
98.98	653.0	607.1
98.99	681.0	607.1
99.0	659.0	607.2
99.01	653.0	607.2
99.02	647.0	607.2
99.03	672.0	607.2
99.04	668.0	607.3
99.05	648.0	607.3
99.06	644.0	607.3
99.07	659.0	607.3
99.08	644.0	607.3
99.09	657.0	607.4
99.1	666.0	607.4
99.11	669.0	607.4
99.12	691.0	607.4
99.13	658.0	607.4
99.14	671.0	607.5
99.15	680.0	607.5
99.16	668.0	607.5
99.17	690.0	607.5
99.18	640.0	607.6
99.19	662.0	607.6
99.2	689.0	607.6
99.21	661.0	607.6
99.22	686.0	607.6
99.23	668.0	607.7
99.24	662.0	607.7
99.25	655.0	607.7
99.26	640.0	607.7
99.27	625.0	607.7
99.28	626.0	607.8
99.29	637.0	607.8
99.3	626.0	607.8
99.31	655.0	607.8
99.32	653.0	607.9
99.33	679.0	607.9
99.34	663.0	607.9
99.35	654.0	607.9
99.36	653.0	607.9
99.37	647.0	608.0
99.38	639.0	608.0
99.39	645.0	608.0
99.4	673.0	608.0
99.41	672.0	608.1
99.42	634.0	608.1
99.43	652.0	608.1
99.44	661.0	608.1
99.45	659.0	608.1
99.46	657.0	608.2
99.47	678.0	608.2
99.48	673.0	608.2
99.49	662.0	608.2
99.5	643.0	608.3
99.51	646.0	608.3
99.52	669.0	608.3
99.53	676.0	608.3
99.54	641.0	608.3
99.55	644.0	608.4
99.56	624.0	608.4
99.57	631.0	608.4
99.58	638.0	608.4
99.59	670.0	608.5
99.6	661.0	608.5
99.61	653.0	608.5
99.62	680.0	608.5
99.63	660.0	608.5
99.64	629.0	608.6
99.65	630.0	608.6
99.66	671.0	608.6
99.67	689.0	608.6
99.68	659.0	608.7
99.69	636.0	608.7
99.7	662.0	608.7
99.71	650.0	608.7
99.72	644.0	608.7
99.73	699.0	608.8
99.74	684.0	608.8
99.75	659.0	608.8
99.76	652.0	608.8
99.77	652.0	608.8
99.78	639.0	608.9
99.79	656.0	608.9
99.8	645.0	608.9
99.81	646.0	608.9
99.82	663.0	609.0
99.83	644.0	609.0
99.84	646.0	609.0
99.85	653.0	609.0
99.86	645.0	609.0
99.87	654.0	609.1
99.88	663.0	609.1
99.89	662.0	609.1
99.9	681.0	609.1
99.91	665.0	609.2
99.92	640.0	609.2
99.93	606.0	609.2
99.94	618.0	609.2
99.95	644.0	609.2
99.96	668.0	609.3
99.97	654.0	609.3
99.98	653.0	609.3
99.99	677.0	609.3
100.0	662.0	609.4
