Thick_Li2MnO3_0p8mm_
Wavelength = 1.54059 Ã… (Cu)
Angle	I(o)	I(b)
10.0	1491.0	1471.7
10.01	1443.0	1472.2
10.02	1447.0	1472.6
10.03	1488.0	1473.0
10.04	1525.0	1473.5
10.05	1548.0	1473.9
10.06	1505.0	1474.4
10.07	1537.0	1474.8
10.08	1503.0	1475.2
10.09	1501.0	1475.7
10.1	1490.0	1476.1
10.11	1537.0	1476.5
10.12	1486.0	1477.0
10.13	1484.0	1477.4
10.14	1507.0	1477.9
10.15	1504.0	1478.3
10.16	1504.0	1478.7
10.17	1495.0	1479.2
10.18	1503.0	1479.6
10.19	1575.0	1480.0
10.2	1518.0	1480.5
10.21	1488.0	1480.9
10.22	1484.0	1481.4
10.23	1460.0	1481.8
10.24	1492.0	1482.2
10.25	1490.0	1482.7
10.26	1504.0	1483.1
10.27	1499.0	1483.5
10.28	1433.0	1484.0
10.29	1413.0	1484.4
10.3	1532.0	1484.8
10.31	1504.0	1485.3
10.32	1455.0	1485.7
10.33	1469.0	1486.2
10.34	1479.0	1486.6
10.35	1523.0	1487.0
10.36	1572.0	1487.5
10.37	1525.0	1487.9
10.38	1557.0	1488.4
10.39	1525.0	1488.8
10.4	1438.0	1489.2
10.41	1449.0	1489.7
10.42	1518.0	1490.1
10.43	1504.0	1490.5
10.44	1493.0	1491.0
10.45	1498.0	1491.4
10.46	1509.0	1491.9
10.47	1554.0	1492.3
10.48	1532.0	1492.7
10.49	1527.0	1493.2
10.5	1512.0	1493.6
10.51	1521.0	1494.0
10.52	1534.0	1494.5
10.53	1518.0	1494.9
10.54	1521.0	1495.4
10.55	1457.0	1495.8
10.56	1529.0	1496.2
10.57	1596.0	1496.7
10.58	1586.0	1497.1
10.59	1534.0	1497.6
10.6	1513.0	1498.0
10.61	1557.0	1498.4
10.62	1556.0	1498.9
10.63	1543.0	1499.3
10.64	1542.0	1499.7
10.65	1522.0	1500.2
10.66	1548.0	1500.6
10.67	1500.0	1501.1
10.68	1509.0	1501.5
10.69	1533.0	1501.9
10.7	1548.0	1502.4
10.71	1512.0	1502.8
10.72	1570.0	1503.3
10.73	1572.0	1503.7
10.74	1504.0	1504.1
10.75	1488.0	1504.6
10.76	1527.0	1505.0
10.77	1477.0	1505.5
10.78	1468.0	1505.9
10.79	1488.0	1506.3
10.8	1515.0	1506.8
10.81	1555.0	1507.2
10.82	1556.0	1507.7
10.83	1551.0	1508.1
10.84	1567.0	1508.5
10.85	1553.0	1509.0
10.86	1594.0	1509.4
10.87	1539.0	1509.9
10.88	1541.0	1510.3
10.89	1488.0	1510.7
10.9	1515.0	1511.2
10.91	1567.0	1511.6
10.92	1526.0	1512.1
10.93	1555.0	1512.5
10.94	1537.0	1512.9
10.95	1511.0	1513.4
10.96	1567.0	1513.8
10.97	1550.0	1514.3
10.98	1533.0	1514.7
10.99	1579.0	1515.1
11.0	1602.0	1515.6
11.01	1579.0	1516.0
11.02	1594.0	1516.5
11.03	1562.0	1516.9
11.04	1498.0	1517.3
11.05	1513.0	1517.8
11.06	1532.0	1518.2
11.07	1572.0	1518.7
11.08	1566.0	1519.1
11.09	1604.0	1519.6
11.1	1569.0	1520.0
11.11	1536.0	1520.4
11.12	1547.0	1520.9
11.13	1561.0	1521.3
11.14	1531.0	1521.8
11.15	1573.0	1522.2
11.16	1628.0	1522.7
11.17	1566.0	1523.1
11.18	1548.0	1523.5
11.19	1571.0	1524.0
11.2	1573.0	1524.4
11.21	1559.0	1524.9
11.22	1559.0	1525.3
11.23	1521.0	1525.8
11.24	1541.0	1526.2
11.25	1542.0	1526.6
11.26	1521.0	1527.1
11.27	1492.0	1527.5
11.28	1534.0	1528.0
11.29	1584.0	1528.4
11.3	1555.0	1528.9
11.31	1575.0	1529.3
11.32	1610.0	1529.8
11.33	1592.0	1530.2
11.34	1572.0	1530.6
11.35	1612.0	1531.1
11.36	1588.0	1531.5
11.37	1581.0	1532.0
11.38	1579.0	1532.4
11.39	1552.0	1532.9
11.4	1565.0	1533.3
11.41	1569.0	1533.8
11.42	1581.0	1534.2
11.43	1559.0	1534.6
11.44	1559.0	1535.1
11.45	1543.0	1535.5
11.46	1549.0	1536.0
11.47	1550.0	1536.4
11.48	1574.0	1536.9
11.49	1601.0	1537.3
11.5	1584.0	1537.8
11.51	1572.0	1538.2
11.52	1614.0	1538.7
11.53	1640.0	1539.1
11.54	1613.0	1539.5
11.55	1571.0	1540.0
11.56	1576.0	1540.4
11.57	1631.0	1540.9
11.58	1584.0	1541.3
11.59	1585.0	1541.8
11.6	1575.0	1542.2
11.61	1588.0	1542.7
11.62	1569.0	1543.1
11.63	1609.0	1543.6
11.64	1578.0	1544.0
11.65	1586.0	1544.4
11.66	1590.0	1544.9
11.67	1587.0	1545.3
11.68	1549.0	1545.8
11.69	1561.0	1546.2
11.7	1561.0	1546.7
11.71	1600.0	1547.1
11.72	1645.0	1547.6
11.73	1610.0	1548.0
11.74	1576.0	1548.5
11.75	1613.0	1548.9
11.76	1599.0	1549.3
11.77	1581.0	1549.8
11.78	1631.0	1550.2
11.79	1621.0	1550.7
11.8	1637.0	1551.1
11.81	1593.0	1551.6
11.82	1576.0	1552.0
11.83	1592.0	1552.5
11.84	1589.0	1552.9
11.85	1596.0	1553.3
11.86	1604.0	1553.8
11.87	1606.0	1554.2
11.88	1596.0	1554.7
11.89	1557.0	1555.1
11.9	1571.0	1555.6
11.91	1590.0	1556.0
11.92	1618.0	1556.5
11.93	1592.0	1556.9
11.94	1628.0	1557.3
11.95	1627.0	1557.8
11.96	1612.0	1558.2
11.97	1628.0	1558.7
11.98	1610.0	1559.1
11.99	1625.0	1559.6
12.0	1639.0	1560.0
12.01	1609.0	1560.4
12.02	1554.0	1560.9
12.03	1579.0	1561.3
12.04	1600.0	1561.8
12.05	1611.0	1562.2
12.06	1599.0	1562.7
12.07	1605.0	1563.1
12.08	1562.0	1563.5
12.09	1575.0	1564.0
12.1	1606.0	1564.4
12.11	1655.0	1564.9
12.12	1615.0	1565.3
12.13	1635.0	1565.7
12.14	1670.0	1566.2
12.15	1641.0	1566.6
12.16	1622.0	1567.1
12.17	1640.0	1567.5
12.18	1654.0	1567.9
12.19	1607.0	1568.4
12.2	1646.0	1568.8
12.21	1662.0	1569.3
12.22	1650.0	1569.7
12.23	1656.0	1570.1
12.24	1666.0	1570.6
12.25	1662.0	1571.0
12.26	1602.0	1571.5
12.27	1631.0	1571.9
12.28	1626.0	1572.3
12.29	1598.0	1572.8
12.3	1598.0	1573.2
12.31	1618.0	1573.6
12.32	1613.0	1574.1
12.33	1632.0	1574.5
12.34	1683.0	1575.0
12.35	1669.0	1575.4
12.36	1617.0	1575.8
12.37	1674.0	1576.3
12.38	1691.0	1576.7
12.39	1679.0	1577.1
12.4	1637.0	1577.6
12.41	1645.0	1578.0
12.42	1682.0	1578.4
12.43	1687.0	1578.9
12.44	1672.0	1579.3
12.45	1666.0	1579.7
12.46	1703.0	1580.2
12.47	1692.0	1580.6
12.48	1633.0	1581.0
12.49	1678.0	1581.5
12.5	1685.0	1581.9
12.51	1653.0	1582.3
12.52	1616.0	1582.8
12.53	1619.0	1583.2
12.54	1626.0	1583.6
12.55	1644.0	1584.1
12.56	1671.0	1584.5
12.57	1676.0	1584.9
12.58	1647.0	1585.4
12.59	1627.0	1585.8
12.6	1632.0	1586.2
12.61	1628.0	1586.6
12.62	1663.0	1587.1
12.63	1675.0	1587.5
12.64	1673.0	1587.9
12.65	1680.0	1588.4
12.66	1650.0	1588.8
12.67	1702.0	1589.2
12.68	1662.0	1589.6
12.69	1691.0	1590.1
12.7	1692.0	1590.5
12.71	1629.0	1590.9
12.72	1617.0	1591.3
12.73	1714.0	1591.8
12.74	1736.0	1592.2
12.75	1639.0	1592.6
12.76	1623.0	1593.0
12.77	1641.0	1593.5
12.78	1634.0	1593.9
12.79	1673.0	1594.3
12.8	1684.0	1594.7
12.81	1673.0	1595.1
12.82	1667.0	1595.6
12.83	1673.0	1596.0
12.84	1626.0	1596.4
12.85	1684.0	1596.8
12.86	1696.0	1597.3
12.87	1660.0	1597.7
12.88	1727.0	1598.1
12.89	1670.0	1598.5
12.9	1643.0	1598.9
12.91	1639.0	1599.3
12.92	1638.0	1599.8
12.93	1625.0	1600.2
12.94	1613.0	1600.6
12.95	1630.0	1601.0
12.96	1674.0	1601.4
12.97	1668.0	1601.8
12.98	1624.0	1602.3
12.99	1617.0	1602.7
13.0	1653.0	1603.1
13.01	1715.0	1603.5
13.02	1688.0	1603.9
13.03	1684.0	1604.3
13.04	1690.0	1604.7
13.05	1714.0	1605.1
13.06	1684.0	1605.6
13.07	1731.0	1606.0
13.08	1710.0	1606.4
13.09	1704.0	1606.8
13.1	1727.0	1607.2
13.11	1729.0	1607.6
13.12	1720.0	1608.0
13.13	1722.0	1608.4
13.14	1662.0	1608.8
13.15	1613.0	1609.2
13.16	1664.0	1609.6
13.17	1722.0	1610.0
13.18	1728.0	1610.4
13.19	1680.0	1610.9
13.2	1710.0	1611.3
13.21	1742.0	1611.7
13.22	1699.0	1612.1
13.23	1699.0	1612.5
13.24	1714.0	1612.9
13.25	1718.0	1613.3
13.26	1726.0	1613.7
13.27	1739.0	1614.1
13.28	1719.0	1614.5
13.29	1751.0	1614.9
13.3	1743.0	1615.3
13.31	1746.0	1615.7
13.32	1697.0	1616.1
13.33	1690.0	1616.5
13.34	1688.0	1616.9
13.35	1667.0	1617.2
13.36	1683.0	1617.6
13.37	1689.0	1618.0
13.38	1709.0	1618.4
13.39	1691.0	1618.8
13.4	1708.0	1619.2
13.41	1741.0	1619.6
13.42	1762.0	1620.0
13.43	1705.0	1620.4
13.44	1670.0	1620.8
13.45	1661.0	1621.2
13.46	1661.0	1621.6
13.47	1695.0	1622.0
13.48	1724.0	1622.3
13.49	1716.0	1622.7
13.5	1691.0	1623.1
13.51	1728.0	1623.5
13.52	1713.0	1623.9
13.53	1762.0	1624.3
13.54	1738.0	1624.7
13.55	1702.0	1625.0
13.56	1668.0	1625.4
13.57	1712.0	1625.8
13.58	1727.0	1626.2
13.59	1704.0	1626.6
13.6	1747.0	1626.9
13.61	1739.0	1627.3
13.62	1713.0	1627.7
13.63	1715.0	1628.1
13.64	1752.0	1628.5
13.65	1720.0	1628.8
13.66	1693.0	1629.2
13.67	1716.0	1629.6
13.68	1699.0	1630.0
13.69	1701.0	1630.3
13.7	1728.0	1630.7
13.71	1743.0	1631.1
13.72	1702.0	1631.5
13.73	1757.0	1631.8
13.74	1760.0	1632.2
13.75	1726.0	1632.6
13.76	1691.0	1632.9
13.77	1694.0	1633.3
13.78	1718.0	1633.7
13.79	1708.0	1634.1
13.8	1732.0	1634.4
13.81	1761.0	1634.8
13.82	1725.0	1635.1
13.83	1694.0	1635.5
13.84	1723.0	1635.9
13.85	1777.0	1636.2
13.86	1730.0	1636.6
13.87	1669.0	1637.0
13.88	1685.0	1637.3
13.89	1687.0	1637.7
13.9	1701.0	1638.0
13.91	1699.0	1638.4
13.92	1689.0	1638.8
13.93	1722.0	1639.1
13.94	1699.0	1639.5
13.95	1735.0	1639.8
13.96	1734.0	1640.2
13.97	1726.0	1640.5
13.98	1771.0	1640.9
13.99	1762.0	1641.2
14.0	1744.0	1641.6
14.01	1748.0	1642.0
14.02	1776.0	1642.3
14.03	1762.0	1642.7
14.04	1740.0	1643.0
14.05	1761.0	1643.3
14.06	1763.0	1643.7
14.07	1704.0	1644.0
14.08	1692.0	1644.4
14.09	1749.0	1644.7
14.1	1751.0	1645.1
14.11	1742.0	1645.4
14.12	1750.0	1645.8
14.13	1754.0	1646.1
14.14	1751.0	1646.4
14.15	1747.0	1646.8
14.16	1722.0	1647.1
14.17	1733.0	1647.5
14.18	1736.0	1647.8
14.19	1737.0	1648.1
14.2	1752.0	1648.5
14.21	1766.0	1648.8
14.22	1737.0	1649.1
14.23	1739.0	1649.5
14.24	1772.0	1649.8
14.25	1748.0	1650.1
14.26	1730.0	1650.5
14.27	1720.0	1650.8
14.28	1730.0	1651.1
14.29	1725.0	1651.5
14.3	1738.0	1651.8
14.31	1785.0	1652.1
14.32	1773.0	1652.4
14.33	1735.0	1652.8
14.34	1729.0	1653.1
14.35	1750.0	1653.4
14.36	1750.0	1653.7
14.37	1726.0	1654.0
14.38	1707.0	1654.4
14.39	1716.0	1654.7
14.4	1713.0	1655.0
14.41	1731.0	1655.3
14.42	1720.0	1655.6
14.43	1766.0	1655.9
14.44	1770.0	1656.3
14.45	1768.0	1656.6
14.46	1727.0	1656.9
14.47	1721.0	1657.2
14.48	1772.0	1657.5
14.49	1747.0	1657.8
14.5	1686.0	1658.1
14.51	1707.0	1658.4
14.52	1740.0	1658.7
14.53	1767.0	1659.1
14.54	1772.0	1659.4
14.55	1789.0	1659.7
14.56	1748.0	1660.0
14.57	1754.0	1660.3
14.58	1750.0	1660.6
14.59	1712.0	1660.9
14.6	1723.0	1661.2
14.61	1704.0	1661.5
14.62	1726.0	1661.8
14.63	1776.0	1662.1
14.64	1786.0	1662.4
14.65	1745.0	1662.6
14.66	1741.0	1662.9
14.67	1751.0	1663.2
14.68	1767.0	1663.5
14.69	1768.0	1663.8
14.7	1744.0	1664.1
14.71	1740.0	1664.4
14.72	1722.0	1664.7
14.73	1724.0	1665.0
14.74	1767.0	1665.3
14.75	1784.0	1665.5
14.76	1791.0	1665.8
14.77	1749.0	1666.1
14.78	1733.0	1666.4
14.79	1713.0	1666.7
14.8	1706.0	1666.9
14.81	1729.0	1667.2
14.82	1691.0	1667.5
14.83	1694.0	1667.8
14.84	1745.0	1668.0
14.85	1746.0	1668.3
14.86	1727.0	1668.6
14.87	1722.0	1668.9
14.88	1710.0	1669.1
14.89	1694.0	1669.4
14.9	1755.0	1669.7
14.91	1783.0	1669.9
14.92	1767.0	1670.2
14.93	1717.0	1670.5
14.94	1721.0	1670.7
14.95	1769.0	1671.0
14.96	1746.0	1671.3
14.97	1715.0	1671.5
14.98	1702.0	1671.8
14.99	1721.0	1672.0
15.0	1689.0	1672.3
15.01	1692.0	1672.6
15.02	1739.0	1672.8
15.03	1764.0	1673.1
15.04	1720.0	1673.3
15.05	1720.0	1673.6
15.06	1709.0	1673.8
15.07	1715.0	1674.1
15.08	1732.0	1674.3
15.09	1758.0	1674.6
15.1	1715.0	1674.8
15.11	1672.0	1675.1
15.12	1722.0	1675.3
15.13	1755.0	1675.6
15.14	1732.0	1675.8
15.15	1725.0	1676.0
15.16	1707.0	1676.3
15.17	1730.0	1676.5
15.18	1699.0	1676.7
15.19	1711.0	1677.0
15.2	1724.0	1677.2
15.21	1746.0	1677.5
15.22	1747.0	1677.7
15.23	1716.0	1677.9
15.24	1738.0	1678.1
15.25	1752.0	1678.4
15.26	1740.0	1678.6
15.27	1736.0	1678.8
15.28	1746.0	1679.1
15.29	1738.0	1679.3
15.3	1716.0	1679.5
15.31	1709.0	1679.7
15.32	1706.0	1679.9
15.33	1719.0	1680.2
15.34	1742.0	1680.4
15.35	1784.0	1680.6
15.36	1755.0	1680.8
15.37	1703.0	1681.0
15.38	1712.0	1681.2
15.39	1730.0	1681.5
15.4	1723.0	1681.7
15.41	1774.0	1681.9
15.42	1744.0	1682.1
15.43	1728.0	1682.3
15.44	1704.0	1682.5
15.45	1688.0	1682.7
15.46	1674.0	1682.9
15.47	1695.0	1683.1
15.48	1759.0	1683.3
15.49	1762.0	1683.5
15.5	1739.0	1683.7
15.51	1729.0	1683.9
15.52	1699.0	1684.1
15.53	1686.0	1684.3
15.54	1726.0	1684.5
15.55	1775.0	1684.7
15.56	1746.0	1684.9
15.57	1695.0	1685.1
15.58	1692.0	1685.3
15.59	1725.0	1685.4
15.6	1738.0	1685.6
15.61	1729.0	1685.8
15.62	1694.0	1686.0
15.63	1714.0	1686.2
15.64	1770.0	1686.4
15.65	1757.0	1686.5
15.66	1720.0	1686.7
15.67	1726.0	1686.9
15.68	1693.0	1687.1
15.69	1689.0	1687.2
15.7	1686.0	1687.4
15.71	1696.0	1687.6
15.72	1713.0	1687.7
15.73	1709.0	1687.9
15.74	1702.0	1688.1
15.75	1716.0	1688.2
15.76	1672.0	1688.4
15.77	1676.0	1688.6
15.78	1698.0	1688.7
15.79	1673.0	1688.9
15.8	1671.0	1689.1
15.81	1667.0	1689.2
15.82	1709.0	1689.4
15.83	1739.0	1689.5
15.84	1754.0	1689.7
15.85	1734.0	1689.8
15.86	1705.0	1690.0
15.87	1660.0	1690.1
15.88	1692.0	1690.3
15.89	1695.0	1690.4
15.9	1694.0	1690.6
15.91	1723.0	1690.7
15.92	1739.0	1690.9
15.93	1706.0	1691.0
15.94	1669.0	1691.1
15.95	1662.0	1691.3
15.96	1695.0	1691.4
15.97	1700.0	1691.5
15.98	1692.0	1691.7
15.99	1702.0	1691.8
16.0	1707.0	1691.9
16.01	1687.0	1692.1
16.02	1741.0	1692.2
16.03	1752.0	1692.3
16.04	1749.0	1692.5
16.05	1741.0	1692.6
16.06	1694.0	1692.7
16.07	1678.0	1692.8
16.08	1724.0	1692.9
16.09	1771.0	1693.1
16.1	1713.0	1693.2
16.11	1694.0	1693.3
16.12	1708.0	1693.4
16.13	1705.0	1693.5
16.14	1715.0	1693.6
16.15	1732.0	1693.8
16.16	1709.0	1693.9
16.17	1693.0	1694.0
16.18	1691.0	1694.1
16.19	1691.0	1694.2
16.2	1709.0	1694.3
16.21	1717.0	1694.4
16.22	1717.0	1694.5
16.23	1687.0	1694.6
16.24	1697.0	1694.7
16.25	1698.0	1694.8
16.26	1716.0	1694.9
16.27	1724.0	1695.0
16.28	1712.0	1695.1
16.29	1716.0	1695.2
16.3	1722.0	1695.2
16.31	1715.0	1695.3
16.32	1708.0	1695.4
16.33	1683.0	1695.5
16.34	1676.0	1695.6
16.35	1680.0	1695.7
16.36	1665.0	1695.8
16.37	1651.0	1695.8
16.38	1658.0	1695.9
16.39	1661.0	1696.0
16.4	1676.0	1696.1
16.41	1695.0	1696.1
16.42	1705.0	1696.2
16.43	1685.0	1696.3
16.44	1683.0	1696.4
16.45	1691.0	1696.4
16.46	1679.0	1696.5
16.47	1717.0	1696.6
16.48	1744.0	1696.6
16.49	1714.0	1696.7
16.5	1698.0	1696.8
16.51	1709.0	1696.8
16.52	1711.0	1696.9
16.53	1708.0	1696.9
16.54	1703.0	1697.0
16.55	1707.0	1697.0
16.56	1732.0	1697.1
16.57	1707.0	1697.2
16.58	1664.0	1697.2
16.59	1663.0	1697.3
16.6	1683.0	1697.3
16.61	1688.0	1697.4
16.62	1693.0	1697.4
16.63	1704.0	1697.4
16.64	1706.0	1697.5
16.65	1709.0	1697.5
16.66	1739.0	1697.6
16.67	1726.0	1697.6
16.68	1686.0	1697.6
16.69	1661.0	1697.7
16.7	1672.0	1697.7
16.71	1698.0	1697.8
16.72	1737.0	1697.8
16.73	1762.0	1697.8
16.74	1743.0	1697.8
16.75	1714.0	1697.9
16.76	1719.0	1697.9
16.77	1721.0	1697.9
16.78	1682.0	1698.0
16.79	1641.0	1698.0
16.8	1643.0	1698.0
16.81	1681.0	1698.0
16.82	1721.0	1698.0
16.83	1718.0	1698.1
16.84	1697.0	1698.1
16.85	1685.0	1698.1
16.86	1675.0	1698.1
16.87	1697.0	1698.1
16.88	1731.0	1698.1
16.89	1713.0	1698.1
16.9	1696.0	1698.1
16.91	1713.0	1698.1
16.92	1680.0	1698.2
16.93	1683.0	1698.2
16.94	1712.0	1698.2
16.95	1702.0	1698.2
16.96	1705.0	1698.2
16.97	1732.0	1698.2
16.98	1732.0	1698.2
16.99	1708.0	1698.2
17.0	1685.0	1698.1
17.01	1672.0	1698.1
17.02	1679.0	1698.1
17.03	1684.0	1698.1
17.04	1725.0	1698.1
17.05	1746.0	1698.1
17.06	1725.0	1698.1
17.07	1708.0	1698.1
17.08	1695.0	1698.1
17.09	1709.0	1698.0
17.1	1744.0	1698.0
17.11	1746.0	1698.0
17.12	1716.0	1698.0
17.13	1714.0	1698.0
17.14	1744.0	1697.9
17.15	1752.0	1697.9
17.16	1725.0	1697.9
17.17	1706.0	1697.9
17.18	1694.0	1697.8
17.19	1663.0	1697.8
17.2	1677.0	1697.8
17.21	1723.0	1697.7
17.22	1750.0	1697.7
17.23	1752.0	1697.7
17.24	1713.0	1697.6
17.25	1687.0	1697.6
17.26	1719.0	1697.5
17.27	1737.0	1697.5
17.28	1729.0	1697.5
17.29	1733.0	1697.4
17.3	1714.0	1697.4
17.31	1694.0	1697.3
17.32	1707.0	1697.3
17.33	1728.0	1697.2
17.34	1768.0	1697.2
17.35	1740.0	1697.1
17.36	1706.0	1697.1
17.37	1727.0	1697.0
17.38	1723.0	1697.0
17.39	1737.0	1696.9
17.4	1743.0	1696.8
17.41	1718.0	1696.8
17.42	1708.0	1696.7
17.43	1716.0	1696.7
17.44	1719.0	1696.6
17.45	1712.0	1696.5
17.46	1710.0	1696.5
17.47	1724.0	1696.4
17.48	1710.0	1696.3
17.49	1688.0	1696.2
17.5	1698.0	1696.2
17.51	1703.0	1696.1
17.52	1710.0	1696.0
17.53	1708.0	1696.0
17.54	1702.0	1695.9
17.55	1721.0	1695.8
17.56	1738.0	1695.7
17.57	1720.0	1695.6
17.58	1690.0	1695.6
17.59	1702.0	1695.5
17.6	1692.0	1695.4
17.61	1676.0	1695.3
17.62	1709.0	1695.2
17.63	1703.0	1695.1
17.64	1687.0	1695.0
17.65	1692.0	1694.9
17.66	1700.0	1694.8
17.67	1727.0	1694.7
17.68	1734.0	1694.7
17.69	1699.0	1694.6
17.7	1684.0	1694.5
17.71	1710.0	1694.4
17.72	1720.0	1694.3
17.73	1690.0	1694.2
17.74	1693.0	1694.0
17.75	1730.0	1693.9
17.76	1716.0	1693.8
17.77	1694.0	1693.7
17.78	1705.0	1693.6
17.79	1697.0	1693.5
17.8	1672.0	1693.4
17.81	1697.0	1693.3
17.82	1736.0	1693.2
17.83	1740.0	1693.1
17.84	1742.0	1692.9
17.85	1711.0	1692.8
17.86	1682.0	1692.7
17.87	1688.0	1692.6
17.88	1689.0	1692.5
17.89	1699.0	1692.3
17.9	1727.0	1692.2
17.91	1758.0	1692.1
17.92	1761.0	1692.0
17.93	1755.0	1691.8
17.94	1747.0	1691.7
17.95	1715.0	1691.6
17.96	1689.0	1691.4
17.97	1704.0	1691.3
17.98	1712.0	1691.2
17.99	1685.0	1691.0
18.0	1709.0	1690.9
18.01	1746.0	1690.7
18.02	1723.0	1690.6
18.03	1710.0	1690.5
18.04	1711.0	1690.3
18.05	1727.0	1690.2
18.06	1745.0	1690.0
18.07	1706.0	1689.9
18.08	1687.0	1689.7
18.09	1715.0	1689.6
18.1	1762.0	1689.4
18.11	1776.0	1689.3
18.12	1764.0	1689.1
18.13	1723.0	1689.0
18.14	1660.0	1688.8
18.15	1661.0	1688.7
18.16	1696.0	1688.5
18.17	1706.0	1688.3
18.18	1708.0	1688.2
18.19	1704.0	1688.0
18.2	1694.0	1687.8
18.21	1700.0	1687.7
18.22	1681.0	1687.5
18.23	1674.0	1687.3
18.24	1704.0	1687.2
18.25	1710.0	1687.0
18.26	1703.0	1686.8
18.27	1675.0	1686.7
18.28	1658.0	1686.5
18.29	1661.0	1686.3
18.3	1686.0	1686.1
18.31	1722.0	1686.0
18.32	1711.0	1685.8
18.33	1701.0	1685.6
18.34	1763.0	1685.4
18.35	1794.0	1685.2
18.36	1742.0	1685.0
18.37	1711.0	1684.9
18.38	1731.0	1684.7
18.39	1750.0	1684.5
18.4	1737.0	1684.3
18.41	1732.0	1684.1
18.42	1706.0	1683.9
18.43	1690.0	1683.7
18.44	1692.0	1683.5
18.45	1691.0	1683.3
18.46	1726.0	1683.1
18.47	1733.0	1682.9
18.48	1744.0	1682.7
18.49	1753.0	1682.5
18.5	1738.0	1682.3
18.51	1728.0	1682.1
18.52	1733.0	1681.9
18.53	1762.0	1681.7
18.54	1805.0	1681.5
18.55	1812.0	1681.3
18.56	1802.0	1681.1
18.57	1795.0	1680.9
18.58	1808.0	1680.6
18.59	1829.0	1680.4
18.6	1795.0	1680.2
18.61	1746.0	1680.0
18.62	1774.0	1679.8
18.63	1799.0	1679.6
18.64	1786.0	1679.3
18.65	1806.0	1679.1
18.66	1829.0	1678.9
18.67	1844.0	1678.7
18.68	1869.0	1678.4
18.69	1905.0	1678.2
18.7	1895.0	1678.0
18.71	1877.0	1677.8
18.72	1887.0	1677.5
18.73	1880.0	1677.3
18.74	1867.0	1677.1
18.75	1890.0	1676.8
18.76	1875.0	1676.6
18.77	1824.0	1676.3
18.78	1793.0	1676.1
18.79	1786.0	1675.9
18.8	1765.0	1675.6
18.81	1752.0	1675.4
18.82	1772.0	1675.1
18.83	1791.0	1674.9
18.84	1772.0	1674.6
18.85	1725.0	1674.4
18.86	1726.0	1674.1
18.87	1730.0	1673.9
18.88	1727.0	1673.6
18.89	1715.0	1673.4
18.9	1722.0	1673.1
18.91	1751.0	1672.9
18.92	1751.0	1672.6
18.93	1779.0	1672.4
18.94	1803.0	1672.1
18.95	1790.0	1671.8
18.96	1773.0	1671.6
18.97	1711.0	1671.3
18.98	1724.0	1671.1
18.99	1783.0	1670.8
19.0	1788.0	1670.5
19.01	1743.0	1670.3
19.02	1744.0	1670.0
19.03	1760.0	1669.7
19.04	1766.0	1669.4
19.05	1738.0	1669.2
19.06	1729.0	1668.9
19.07	1695.0	1668.6
19.08	1675.0	1668.3
19.09	1684.0	1668.1
19.1	1700.0	1667.8
19.11	1736.0	1667.5
19.12	1767.0	1667.2
19.13	1764.0	1666.9
19.14	1744.0	1666.6
19.15	1738.0	1666.4
19.16	1749.0	1666.1
19.17	1739.0	1665.8
19.18	1757.0	1665.5
19.19	1751.0	1665.2
19.2	1742.0	1664.9
19.21	1719.0	1664.6
19.22	1739.0	1664.3
19.23	1762.0	1664.0
19.24	1737.0	1663.7
19.25	1750.0	1663.4
19.26	1763.0	1663.1
19.27	1763.0	1662.8
19.28	1771.0	1662.5
19.29	1797.0	1662.2
19.3	1797.0	1661.9
19.31	1774.0	1661.6
19.32	1753.0	1661.3
19.33	1741.0	1661.0
19.34	1748.0	1660.7
19.35	1740.0	1660.4
19.36	1742.0	1660.1
19.37	1773.0	1659.7
19.38	1757.0	1659.4
19.39	1705.0	1659.1
19.4	1721.0	1658.8
19.41	1750.0	1658.5
19.42	1761.0	1658.2
19.43	1789.0	1657.8
19.44	1773.0	1657.5
19.45	1757.0	1657.2
19.46	1735.0	1656.9
19.47	1780.0	1656.5
19.48	1811.0	1656.2
19.49	1799.0	1655.9
19.5	1786.0	1655.5
19.51	1771.0	1655.2
19.52	1786.0	1654.9
19.53	1818.0	1654.5
19.54	1772.0	1654.2
19.55	1770.0	1653.9
19.56	1789.0	1653.5
19.57	1791.0	1653.2
19.58	1792.0	1652.9
19.59	1797.0	1652.5
19.6	1807.0	1652.2
19.61	1785.0	1651.8
19.62	1741.0	1651.5
19.63	1784.0	1651.1
19.64	1810.0	1650.8
19.65	1812.0	1650.4
19.66	1848.0	1650.1
19.67	1862.0	1649.7
19.68	1853.0	1649.4
19.69	1870.0	1649.0
19.7	1888.0	1648.7
19.71	1925.0	1648.3
19.72	1941.0	1648.0
19.73	1972.0	1647.6
19.74	2026.0	1647.2
19.75	2053.0	1646.9
19.76	2063.0	1646.5
19.77	2120.0	1646.1
19.78	2213.0	1645.8
19.79	2259.0	1645.4
19.8	2248.0	1645.0
19.81	2310.0	1644.7
19.82	2429.0	1644.3
19.83	2467.0	1643.9
19.84	2620.0	1643.6
19.85	2741.0	1643.2
19.86	2886.0	1642.8
19.87	3089.0	1642.4
19.88	3231.0	1642.1
19.89	3440.0	1641.7
19.9	3656.0	1641.3
19.91	3990.0	1640.9
19.92	4361.0	1640.5
19.93	4771.0	1640.2
19.94	5181.0	1639.8
19.95	5492.0	1639.4
19.96	5764.0	1639.0
19.97	5920.0	1638.6
19.98	5899.0	1638.2
19.99	5830.0	1637.8
20.0	5562.0	1637.4
20.01	5184.0	1637.0
20.02	4873.0	1636.6
20.03	4540.0	1636.2
20.04	4058.0	1635.8
20.05	3614.0	1635.4
20.06	3221.0	1635.0
20.07	2926.0	1634.6
20.08	2703.0	1634.2
20.09	2470.0	1633.8
20.1	2338.0	1633.4
20.11	2192.0	1633.0
20.12	2087.0	1632.6
20.13	2055.0	1632.2
20.14	2007.0	1631.8
20.15	1944.0	1631.4
20.16	1909.0	1631.0
20.17	1920.0	1630.6
20.18	1897.0	1630.2
20.19	1905.0	1629.7
20.2	1879.0	1629.3
20.21	1863.0	1628.9
20.22	1869.0	1628.5
20.23	1888.0	1628.1
20.24	1835.0	1627.6
20.25	1841.0	1627.2
20.26	1883.0	1626.8
20.27	1810.0	1626.4
20.28	1797.0	1625.9
20.29	1778.0	1625.5
20.3	1759.0	1625.1
20.31	1743.0	1624.6
20.32	1799.0	1624.2
20.33	1785.0	1623.8
20.34	1782.0	1623.3
20.35	1791.0	1622.9
20.36	1765.0	1622.5
20.37	1778.0	1622.0
20.38	1753.0	1621.6
20.39	1744.0	1621.2
20.4	1755.0	1620.7
20.41	1714.0	1620.3
20.42	1693.0	1619.8
20.43	1711.0	1619.4
20.44	1735.0	1618.9
20.45	1709.0	1618.5
20.46	1709.0	1618.0
20.47	1728.0	1617.6
20.48	1714.0	1617.1
20.49	1687.0	1616.7
20.5	1660.0	1616.2
20.51	1644.0	1615.8
20.52	1645.0	1615.3
20.53	1685.0	1614.9
20.54	1693.0	1614.4
20.55	1686.0	1613.9
20.56	1674.0	1613.5
20.57	1674.0	1613.0
20.58	1635.0	1612.6
20.59	1627.0	1612.1
20.6	1657.0	1611.6
20.61	1695.0	1611.2
20.62	1691.0	1610.7
20.63	1717.0	1610.2
20.64	1701.0	1609.7
20.65	1710.0	1609.3
20.66	1704.0	1608.8
20.67	1684.0	1608.3
20.68	1636.0	1607.8
20.69	1624.0	1607.4
20.7	1662.0	1606.9
20.71	1687.0	1606.4
20.72	1695.0	1605.9
20.73	1687.0	1605.5
20.74	1680.0	1605.0
20.75	1678.0	1604.5
20.76	1661.0	1604.0
20.77	1602.0	1603.5
20.78	1630.0	1603.0
20.79	1668.0	1602.5
20.8	1694.0	1602.0
20.81	1690.0	1601.6
20.82	1649.0	1601.1
20.83	1617.0	1600.6
20.84	1625.0	1600.1
20.85	1663.0	1599.6
20.86	1671.0	1599.1
20.87	1676.0	1598.6
20.88	1692.0	1598.1
20.89	1698.0	1597.6
20.9	1673.0	1597.1
20.91	1665.0	1596.6
20.92	1601.0	1596.1
20.93	1651.0	1595.6
20.94	1668.0	1595.1
20.95	1641.0	1594.5
20.96	1639.0	1594.0
20.97	1674.0	1593.5
20.98	1682.0	1593.0
20.99	1645.0	1592.5
21.0	1654.0	1592.0
21.01	1628.0	1591.5
21.02	1641.0	1591.0
21.03	1656.0	1590.4
21.04	1626.0	1589.9
21.05	1630.0	1589.4
21.06	1621.0	1588.9
21.07	1624.0	1588.3
21.08	1669.0	1587.8
21.09	1676.0	1587.3
21.1	1660.0	1586.8
21.11	1642.0	1586.2
21.12	1665.0	1585.7
21.13	1574.0	1585.2
21.14	1596.0	1584.7
21.15	1605.0	1584.1
21.16	1597.0	1583.6
21.17	1628.0	1583.1
21.18	1591.0	1582.5
21.19	1592.0	1582.0
21.2	1609.0	1581.4
21.21	1613.0	1580.9
21.22	1611.0	1580.4
21.23	1583.0	1579.8
21.24	1632.0	1579.3
21.25	1635.0	1578.7
21.26	1617.0	1578.2
21.27	1580.0	1577.6
21.28	1565.0	1577.1
21.29	1592.0	1576.5
21.3	1626.0	1576.0
21.31	1635.0	1575.4
21.32	1611.0	1574.9
21.33	1622.0	1574.3
21.34	1594.0	1573.8
21.35	1588.0	1573.2
21.36	1583.0	1572.7
21.37	1626.0	1572.1
21.38	1609.0	1571.5
21.39	1622.0	1571.0
21.4	1613.0	1570.4
21.41	1591.0	1569.9
21.42	1558.0	1569.3
21.43	1555.0	1568.7
21.44	1589.0	1568.2
21.45	1593.0	1567.6
21.46	1573.0	1567.0
21.47	1604.0	1566.5
21.48	1601.0	1565.9
21.49	1550.0	1565.3
21.5	1552.0	1564.7
21.51	1539.0	1564.2
21.52	1585.0	1563.6
21.53	1573.0	1563.0
21.54	1591.0	1562.4
21.55	1607.0	1561.9
21.56	1636.0	1561.3
21.57	1617.0	1560.7
21.58	1628.0	1560.1
21.59	1623.0	1559.5
21.6	1615.0	1558.9
21.61	1602.0	1558.3
21.62	1604.0	1557.8
21.63	1562.0	1557.2
21.64	1563.0	1556.6
21.65	1574.0	1556.0
21.66	1597.0	1555.4
21.67	1621.0	1554.8
21.68	1597.0	1554.2
21.69	1587.0	1553.6
21.7	1563.0	1553.0
21.71	1536.0	1552.4
21.72	1551.0	1551.8
21.73	1563.0	1551.2
21.74	1540.0	1550.6
21.75	1564.0	1550.0
21.76	1542.0	1549.4
21.77	1557.0	1548.8
21.78	1586.0	1548.2
21.79	1641.0	1547.6
21.8	1621.0	1547.0
21.81	1593.0	1546.4
21.82	1594.0	1545.8
21.83	1638.0	1545.1
21.84	1581.0	1544.5
21.85	1549.0	1543.9
21.86	1563.0	1543.3
21.87	1606.0	1542.7
21.88	1599.0	1542.1
21.89	1582.0	1541.4
21.9	1608.0	1540.8
21.91	1655.0	1540.2
21.92	1678.0	1539.6
21.93	1676.0	1539.0
21.94	1664.0	1538.3
21.95	1673.0	1537.7
21.96	1695.0	1537.1
21.97	1668.0	1536.4
21.98	1686.0	1535.8
21.99	1695.0	1535.2
22.0	1717.0	1534.6
22.01	1706.0	1533.9
22.02	1743.0	1533.3
22.03	1789.0	1532.7
22.04	1817.0	1532.0
22.05	1810.0	1531.4
22.06	1843.0	1530.7
22.07	1872.0	1530.1
22.08	1894.0	1529.5
22.09	1892.0	1528.8
22.1	1916.0	1528.2
22.11	1919.0	1527.5
22.12	1902.0	1526.9
22.13	1947.0	1526.3
22.14	1908.0	1525.6
22.15	1900.0	1525.0
22.16	1854.0	1524.3
22.17	1872.0	1523.7
22.18	1811.0	1523.0
22.19	1863.0	1522.4
22.2	1850.0	1521.7
22.21	1794.0	1521.1
22.22	1779.0	1520.4
22.23	1730.0	1519.7
22.24	1778.0	1519.1
22.25	1732.0	1518.4
22.26	1739.0	1517.8
22.27	1745.0	1517.1
22.28	1755.0	1516.5
22.29	1768.0	1515.8
22.3	1751.0	1515.1
22.31	1669.0	1514.5
22.32	1656.0	1513.8
22.33	1705.0	1513.1
22.34	1763.0	1512.5
22.35	1703.0	1511.8
22.36	1715.0	1511.1
22.37	1720.0	1510.5
22.38	1686.0	1509.8
22.39	1755.0	1509.1
22.4	1719.0	1508.5
22.41	1666.0	1507.8
22.42	1676.0	1507.1
22.43	1672.0	1506.4
22.44	1719.0	1505.8
22.45	1675.0	1505.1
22.46	1676.0	1504.4
22.47	1645.0	1503.7
22.48	1639.0	1503.0
22.49	1698.0	1502.4
22.5	1708.0	1501.7
22.51	1656.0	1501.0
22.52	1650.0	1500.3
22.53	1672.0	1499.6
22.54	1605.0	1499.0
22.55	1634.0	1498.3
22.56	1669.0	1497.6
22.57	1667.0	1496.9
22.58	1642.0	1496.2
22.59	1685.0	1495.5
22.6	1639.0	1494.8
22.61	1653.0	1494.1
22.62	1665.0	1493.4
22.63	1662.0	1492.7
22.64	1599.0	1492.1
22.65	1630.0	1491.4
22.66	1652.0	1490.7
22.67	1626.0	1490.0
22.68	1629.0	1489.3
22.69	1675.0	1488.6
22.7	1640.0	1487.9
22.71	1626.0	1487.2
22.72	1663.0	1486.5
22.73	1607.0	1485.8
22.74	1572.0	1485.1
22.75	1585.0	1484.4
22.76	1621.0	1483.7
22.77	1610.0	1483.0
22.78	1593.0	1482.2
22.79	1609.0	1481.5
22.8	1568.0	1480.8
22.81	1547.0	1480.1
22.82	1577.0	1479.4
22.83	1615.0	1478.7
22.84	1596.0	1478.0
22.85	1604.0	1477.3
22.86	1630.0	1476.6
22.87	1614.0	1475.9
22.88	1560.0	1475.1
22.89	1563.0	1474.4
22.9	1608.0	1473.7
22.91	1666.0	1473.0
22.92	1636.0	1472.3
22.93	1568.0	1471.6
22.94	1570.0	1470.8
22.95	1603.0	1470.1
22.96	1604.0	1469.4
22.97	1576.0	1468.7
22.98	1575.0	1468.0
22.99	1587.0	1467.2
23.0	1562.0	1466.5
23.01	1589.0	1465.8
23.02	1542.0	1465.1
23.03	1577.0	1464.3
23.04	1588.0	1463.6
23.05	1579.0	1462.9
23.06	1552.0	1462.2
23.07	1565.0	1461.4
23.08	1603.0	1460.7
23.09	1576.0	1460.0
23.1	1532.0	1459.2
23.11	1548.0	1458.5
23.12	1538.0	1457.8
23.13	1555.0	1457.0
23.14	1524.0	1456.3
23.15	1507.0	1455.6
23.16	1592.0	1454.8
23.17	1574.0	1454.1
23.18	1561.0	1453.4
23.19	1529.0	1452.6
23.2	1513.0	1451.9
23.21	1559.0	1451.2
23.22	1575.0	1450.4
23.23	1571.0	1449.7
23.24	1541.0	1448.9
23.25	1521.0	1448.2
23.26	1575.0	1447.5
23.27	1591.0	1446.7
23.28	1535.0	1446.0
23.29	1493.0	1445.2
23.3	1467.0	1444.5
23.31	1484.0	1443.7
23.32	1498.0	1443.0
23.33	1513.0	1442.2
23.34	1529.0	1441.5
23.35	1521.0	1440.8
23.36	1490.0	1440.0
23.37	1485.0	1439.3
23.38	1473.0	1438.5
23.39	1495.0	1437.8
23.4	1486.0	1437.0
23.41	1493.0	1436.3
23.42	1483.0	1435.5
23.43	1453.0	1434.8
23.44	1444.0	1434.0
23.45	1479.0	1433.2
23.46	1472.0	1432.5
23.47	1472.0	1431.7
23.48	1455.0	1431.0
23.49	1451.0	1430.2
23.5	1422.0	1429.5
23.51	1422.0	1428.7
23.52	1440.0	1427.9
23.53	1429.0	1427.2
23.54	1377.0	1426.4
23.55	1379.0	1425.7
23.56	1392.0	1424.9
23.57	1419.0	1424.1
23.58	1443.0	1423.4
23.59	1450.0	1422.6
23.6	1432.0	1421.9
23.61	1426.0	1421.1
23.62	1474.0	1420.3
23.63	1475.0	1419.6
23.64	1438.0	1418.8
23.65	1425.0	1418.0
23.66	1424.0	1417.3
23.67	1466.0	1416.5
23.68	1423.0	1415.7
23.69	1398.0	1415.0
23.7	1387.0	1414.2
23.71	1403.0	1413.4
23.72	1430.0	1412.7
23.73	1469.0	1411.9
23.74	1443.0	1411.1
23.75	1384.0	1410.4
23.76	1384.0	1409.6
23.77	1388.0	1408.8
23.78	1364.0	1408.0
23.79	1405.0	1407.3
23.8	1421.0	1406.5
23.81	1424.0	1405.7
23.82	1386.0	1404.9
23.83	1412.0	1404.2
23.84	1405.0	1403.4
23.85	1393.0	1402.6
23.86	1344.0	1401.8
23.87	1415.0	1401.1
23.88	1399.0	1400.3
23.89	1379.0	1399.5
23.9	1388.0	1398.7
23.91	1334.0	1398.0
23.92	1348.0	1397.2
23.93	1410.0	1396.4
23.94	1393.0	1395.6
23.95	1344.0	1394.8
23.96	1346.0	1394.1
23.97	1403.0	1393.3
23.98	1369.0	1392.5
23.99	1336.0	1391.7
24.0	1364.0	1390.9
24.01	1356.0	1390.1
24.02	1347.0	1389.4
24.03	1388.0	1388.6
24.04	1386.0	1387.8
24.05	1349.0	1387.0
24.06	1374.0	1386.2
24.07	1365.0	1385.4
24.08	1365.0	1384.6
24.09	1332.0	1383.9
24.1	1376.0	1383.1
24.11	1351.0	1382.3
24.12	1342.0	1381.5
24.13	1343.0	1380.7
24.14	1369.0	1379.9
24.15	1350.0	1379.1
24.16	1338.0	1378.3
24.17	1359.0	1377.6
24.18	1331.0	1376.8
24.19	1342.0	1376.0
24.2	1355.0	1375.2
24.21	1342.0	1374.4
24.22	1350.0	1373.6
24.23	1360.0	1372.8
24.24	1369.0	1372.0
24.25	1383.0	1371.2
24.26	1340.0	1370.4
24.27	1378.0	1369.6
24.28	1354.0	1368.8
24.29	1307.0	1368.1
24.3	1351.0	1367.3
24.31	1343.0	1366.5
24.32	1338.0	1365.7
24.33	1316.0	1364.9
24.34	1331.0	1364.1
24.35	1316.0	1363.3
24.36	1330.0	1362.5
24.37	1331.0	1361.7
24.38	1341.0	1360.9
24.39	1329.0	1360.1
24.4	1342.0	1359.3
24.41	1329.0	1358.5
24.42	1344.0	1357.7
24.43	1370.0	1356.9
24.44	1351.0	1356.1
24.45	1333.0	1355.3
24.46	1363.0	1354.5
24.47	1380.0	1353.7
24.48	1350.0	1352.9
24.49	1360.0	1352.1
24.5	1369.0	1351.3
24.51	1409.0	1350.5
24.52	1346.0	1349.7
24.53	1325.0	1348.9
24.54	1315.0	1348.1
24.55	1333.0	1347.3
24.56	1332.0	1346.5
24.57	1309.0	1345.7
24.58	1305.0	1344.9
24.59	1336.0	1344.1
24.6	1328.0	1343.3
24.61	1340.0	1342.5
24.62	1332.0	1341.7
24.63	1334.0	1340.9
24.64	1320.0	1340.1
24.65	1339.0	1339.3
24.66	1354.0	1338.5
24.67	1365.0	1337.7
24.68	1332.0	1336.9
24.69	1313.0	1336.1
24.7	1304.0	1335.3
24.71	1300.0	1334.4
24.72	1313.0	1333.6
24.73	1336.0	1332.8
24.74	1339.0	1332.0
24.75	1308.0	1331.2
24.76	1305.0	1330.4
24.77	1330.0	1329.6
24.78	1318.0	1328.8
24.79	1281.0	1328.0
24.8	1306.0	1327.2
24.81	1349.0	1326.4
24.82	1326.0	1325.6
24.83	1288.0	1324.8
24.84	1298.0	1324.0
24.85	1293.0	1323.2
24.86	1303.0	1322.3
24.87	1312.0	1321.5
24.88	1306.0	1320.7
24.89	1284.0	1319.9
24.9	1292.0	1319.1
24.91	1318.0	1318.3
24.92	1296.0	1317.5
24.93	1274.0	1316.7
24.94	1288.0	1315.9
24.95	1293.0	1315.1
24.96	1249.0	1314.3
24.97	1286.0	1313.4
24.98	1288.0	1312.6
24.99	1295.0	1311.8
25.0	1289.0	1311.0
25.01	1287.0	1310.2
25.02	1295.0	1309.4
25.03	1324.0	1308.6
25.04	1326.0	1307.8
25.05	1303.0	1307.0
25.06	1311.0	1306.2
25.07	1323.0	1305.3
25.08	1309.0	1304.5
25.09	1322.0	1303.7
25.1	1355.0	1302.9
25.11	1340.0	1302.1
25.12	1311.0	1301.3
25.13	1296.0	1300.5
25.14	1314.0	1299.7
25.15	1289.0	1298.9
25.16	1278.0	1298.0
25.17	1305.0	1297.2
25.18	1322.0	1296.4
25.19	1340.0	1295.6
25.2	1296.0	1294.8
25.21	1277.0	1294.0
25.22	1274.0	1293.2
25.23	1280.0	1292.4
25.24	1312.0	1291.6
25.25	1300.0	1290.7
25.26	1276.0	1289.9
25.27	1281.0	1289.1
25.28	1270.0	1288.3
25.29	1292.0	1287.5
25.3	1342.0	1286.7
25.31	1327.0	1285.9
25.32	1292.0	1285.1
25.33	1299.0	1284.3
25.34	1286.0	1283.4
25.35	1291.0	1282.6
25.36	1275.0	1281.8
25.37	1299.0	1281.0
25.38	1284.0	1280.2
25.39	1294.0	1279.4
25.4	1285.0	1278.6
25.41	1315.0	1277.8
25.42	1345.0	1276.9
25.43	1296.0	1276.1
25.44	1272.0	1275.3
25.45	1267.0	1274.5
25.46	1262.0	1273.7
25.47	1275.0	1272.9
25.48	1293.0	1272.1
25.49	1287.0	1271.3
25.5	1285.0	1270.5
25.51	1272.0	1269.6
25.52	1270.0	1268.8
25.53	1275.0	1268.0
25.54	1274.0	1267.2
25.55	1289.0	1266.4
25.56	1295.0	1265.6
25.57	1293.0	1264.8
25.58	1310.0	1264.0
25.59	1275.0	1263.2
25.6	1274.0	1262.3
25.61	1276.0	1261.5
25.62	1255.0	1260.7
25.63	1232.0	1259.9
25.64	1207.0	1259.1
25.65	1233.0	1258.3
25.66	1269.0	1257.5
25.67	1290.0	1256.7
25.68	1275.0	1255.9
25.69	1271.0	1255.1
25.7	1278.0	1254.2
25.71	1284.0	1253.4
25.72	1257.0	1252.6
25.73	1267.0	1251.8
25.74	1249.0	1251.0
25.75	1260.0	1250.2
25.76	1256.0	1249.4
25.77	1238.0	1248.6
25.78	1258.0	1247.8
25.79	1257.0	1247.0
25.8	1251.0	1246.2
25.81	1259.0	1245.3
25.82	1269.0	1244.5
25.83	1256.0	1243.7
25.84	1230.0	1242.9
25.85	1216.0	1242.1
25.86	1232.0	1241.3
25.87	1237.0	1240.5
25.88	1217.0	1239.7
25.89	1197.0	1238.9
25.9	1210.0	1238.1
25.91	1237.0	1237.3
25.92	1248.0	1236.5
25.93	1248.0	1235.7
25.94	1259.0	1234.9
25.95	1232.0	1234.1
25.96	1212.0	1233.2
25.97	1227.0	1232.4
25.98	1234.0	1231.6
25.99	1234.0	1230.8
26.0	1259.0	1230.0
26.01	1241.0	1229.2
26.02	1224.0	1228.4
26.03	1207.0	1227.6
26.04	1201.0	1226.8
26.05	1225.0	1226.0
26.06	1256.0	1225.2
26.07	1238.0	1224.4
26.08	1198.0	1223.6
26.09	1195.0	1222.8
26.1	1210.0	1222.0
26.11	1212.0	1221.2
26.12	1209.0	1220.4
26.13	1222.0	1219.6
26.14	1208.0	1218.8
26.15	1195.0	1218.0
26.16	1164.0	1217.2
26.17	1146.0	1216.4
26.18	1193.0	1215.6
26.19	1213.0	1214.8
26.2	1218.0	1214.0
26.21	1225.0	1213.2
26.22	1212.0	1212.4
26.23	1208.0	1211.6
26.24	1214.0	1210.8
26.25	1216.0	1210.0
26.26	1239.0	1209.2
26.27	1233.0	1208.4
26.28	1203.0	1207.6
26.29	1190.0	1206.8
26.3	1199.0	1206.0
26.31	1208.0	1205.2
26.32	1163.0	1204.4
26.33	1134.0	1203.6
26.34	1171.0	1202.8
26.35	1180.0	1202.0
26.36	1163.0	1201.2
26.37	1172.0	1200.4
26.38	1196.0	1199.6
26.39	1190.0	1198.8
26.4	1190.0	1198.1
26.41	1177.0	1197.3
26.42	1167.0	1196.5
26.43	1160.0	1195.7
26.44	1169.0	1194.9
26.45	1190.0	1194.1
26.46	1173.0	1193.3
26.47	1176.0	1192.5
26.48	1164.0	1191.7
26.49	1147.0	1190.9
26.5	1152.0	1190.1
26.51	1190.0	1189.4
26.52	1187.0	1188.6
26.53	1168.0	1187.8
26.54	1166.0	1187.0
26.55	1170.0	1186.2
26.56	1176.0	1185.4
26.57	1168.0	1184.6
26.58	1188.0	1183.8
26.59	1201.0	1183.0
26.6	1134.0	1182.3
26.61	1107.0	1181.5
26.62	1145.0	1180.7
26.63	1156.0	1179.9
26.64	1169.0	1179.1
26.65	1176.0	1178.3
26.66	1147.0	1177.6
26.67	1129.0	1176.8
26.68	1161.0	1176.0
26.69	1177.0	1175.2
26.7	1171.0	1174.4
26.71	1164.0	1173.6
26.72	1146.0	1172.9
26.73	1151.0	1172.1
26.74	1154.0	1171.3
26.75	1148.0	1170.5
26.76	1152.0	1169.7
26.77	1144.0	1169.0
26.78	1133.0	1168.2
26.79	1164.0	1167.4
26.8	1182.0	1166.6
26.81	1163.0	1165.9
26.82	1135.0	1165.1
26.83	1127.0	1164.3
26.84	1130.0	1163.5
26.85	1139.0	1162.8
26.86	1156.0	1162.0
26.87	1142.0	1161.2
26.88	1124.0	1160.4
26.89	1119.0	1159.7
26.9	1133.0	1158.9
26.91	1133.0	1158.1
26.92	1114.0	1157.3
26.93	1119.0	1156.6
26.94	1120.0	1155.8
26.95	1120.0	1155.0
26.96	1140.0	1154.3
26.97	1139.0	1153.5
26.98	1136.0	1152.7
26.99	1148.0	1152.0
27.0	1137.0	1151.2
27.01	1138.0	1150.4
27.02	1149.0	1149.7
27.03	1141.0	1148.9
27.04	1110.0	1148.1
27.05	1110.0	1147.4
27.06	1123.0	1146.6
27.07	1107.0	1145.8
27.08	1113.0	1145.1
27.09	1126.0	1144.3
27.1	1134.0	1143.6
27.11	1129.0	1142.8
27.12	1112.0	1142.0
27.13	1122.0	1141.3
27.14	1146.0	1140.5
27.15	1138.0	1139.8
27.16	1140.0	1139.0
27.17	1162.0	1138.2
27.18	1148.0	1137.5
27.19	1127.0	1136.7
27.2	1122.0	1136.0
27.21	1112.0	1135.2
27.22	1109.0	1134.5
27.23	1100.0	1133.7
27.24	1106.0	1133.0
27.25	1093.0	1132.2
27.26	1081.0	1131.4
27.27	1120.0	1130.7
27.28	1119.0	1129.9
27.29	1101.0	1129.2
27.3	1102.0	1128.4
27.31	1099.0	1127.7
27.32	1112.0	1126.9
27.33	1137.0	1126.2
27.34	1134.0	1125.5
27.35	1124.0	1124.7
27.36	1121.0	1124.0
27.37	1121.0	1123.2
27.38	1111.0	1122.5
27.39	1100.0	1121.7
27.4	1110.0	1121.0
27.41	1096.0	1120.2
27.42	1080.0	1119.5
27.43	1115.0	1118.8
27.44	1157.0	1118.0
27.45	1142.0	1117.3
27.46	1100.0	1116.5
27.47	1075.0	1115.8
27.48	1079.0	1115.1
27.49	1091.0	1114.3
27.5	1059.0	1113.6
27.51	1049.0	1112.9
27.52	1077.0	1112.1
27.53	1117.0	1111.4
27.54	1130.0	1110.7
27.55	1099.0	1109.9
27.56	1080.0	1109.2
27.57	1072.0	1108.5
27.58	1087.0	1107.7
27.59	1093.0	1107.0
27.6	1095.0	1106.3
27.61	1101.0	1105.5
27.62	1103.0	1104.8
27.63	1093.0	1104.1
27.64	1090.0	1103.4
27.65	1083.0	1102.6
27.66	1082.0	1101.9
27.67	1111.0	1101.2
27.68	1102.0	1100.5
27.69	1064.0	1099.7
27.7	1049.0	1099.0
27.71	1084.0	1098.3
27.72	1111.0	1097.6
27.73	1087.0	1096.9
27.74	1064.0	1096.1
27.75	1071.0	1095.4
27.76	1068.0	1094.7
27.77	1060.0	1094.0
27.78	1066.0	1093.3
27.79	1074.0	1092.6
27.8	1051.0	1091.9
27.81	1025.0	1091.1
27.82	1060.0	1090.4
27.83	1090.0	1089.7
27.84	1096.0	1089.0
27.85	1100.0	1088.3
27.86	1093.0	1087.6
27.87	1081.0	1086.9
27.88	1068.0	1086.2
27.89	1066.0	1085.5
27.9	1084.0	1084.8
27.91	1080.0	1084.1
27.92	1049.0	1083.3
27.93	1053.0	1082.6
27.94	1047.0	1081.9
27.95	1038.0	1081.2
27.96	1071.0	1080.5
27.97	1069.0	1079.8
27.98	1053.0	1079.1
27.99	1066.0	1078.4
28.0	1078.0	1077.7
28.01	1089.0	1077.1
28.02	1084.0	1076.4
28.03	1066.0	1075.7
28.04	1059.0	1075.0
28.05	1030.0	1074.3
28.06	1031.0	1073.6
28.07	1074.0	1072.9
28.08	1088.0	1072.2
28.09	1087.0	1071.5
28.1	1091.0	1070.8
28.11	1085.0	1070.1
28.12	1072.0	1069.4
28.13	1064.0	1068.8
28.14	1050.0	1068.1
28.15	1046.0	1067.4
28.16	1042.0	1066.7
28.17	1062.0	1066.0
28.18	1090.0	1065.3
28.19	1075.0	1064.7
28.2	1046.0	1064.0
28.21	1064.0	1063.3
28.22	1074.0	1062.6
28.23	1090.0	1062.0
28.24	1101.0	1061.3
28.25	1085.0	1060.6
28.26	1073.0	1059.9
28.27	1073.0	1059.3
28.28	1069.0	1058.6
28.29	1043.0	1057.9
28.3	1018.0	1057.2
28.31	1038.0	1056.6
28.32	1052.0	1055.9
28.33	1044.0	1055.2
28.34	1036.0	1054.6
28.35	1051.0	1053.9
28.36	1043.0	1053.2
28.37	1051.0	1052.6
28.38	1044.0	1051.9
28.39	1007.0	1051.3
28.4	1007.0	1050.6
28.41	1020.0	1049.9
28.42	1021.0	1049.3
28.43	1013.0	1048.6
28.44	1033.0	1048.0
28.45	1053.0	1047.3
28.46	1050.0	1046.7
28.47	1055.0	1046.0
28.48	1067.0	1045.4
28.49	1059.0	1044.7
28.5	1061.0	1044.1
28.51	1040.0	1043.4
28.52	1040.0	1042.8
28.53	1056.0	1042.1
28.54	1070.0	1041.5
28.55	1060.0	1040.8
28.56	1047.0	1040.2
28.57	1058.0	1039.5
28.58	1060.0	1038.9
28.59	1067.0	1038.3
28.6	1066.0	1037.6
28.61	1044.0	1037.0
28.62	1042.0	1036.3
28.63	1078.0	1035.7
28.64	1070.0	1035.1
28.65	1041.0	1034.4
28.66	1035.0	1033.8
28.67	1040.0	1033.2
28.68	1045.0	1032.5
28.69	1055.0	1031.9
28.7	1066.0	1031.3
28.71	1043.0	1030.6
28.72	1022.0	1030.0
28.73	1000.0	1029.4
28.74	1015.0	1028.8
28.75	1040.0	1028.1
28.76	1003.0	1027.5
28.77	1031.0	1026.9
28.78	1074.0	1026.3
28.79	1074.0	1025.7
28.8	1054.0	1025.0
28.81	1037.0	1024.4
28.82	1002.0	1023.8
28.83	1015.0	1023.2
28.84	1018.0	1022.6
28.85	1015.0	1022.0
28.86	1034.0	1021.4
28.87	1046.0	1020.8
28.88	1044.0	1020.1
28.89	1030.0	1019.5
28.9	1018.0	1018.9
28.91	1017.0	1018.3
28.92	1037.0	1017.7
28.93	1050.0	1017.1
28.94	1062.0	1016.5
28.95	1064.0	1015.9
28.96	1049.0	1015.3
28.97	1030.0	1014.7
28.98	1029.0	1014.1
28.99	1059.0	1013.5
29.0	1024.0	1012.9
29.01	992.0	1012.3
29.02	998.0	1011.7
29.03	1041.0	1011.1
29.04	1053.0	1010.6
29.05	1038.0	1010.0
29.06	1045.0	1009.4
29.07	1025.0	1008.8
29.08	989.0	1008.2
29.09	1018.0	1007.6
29.1	1042.0	1007.0
29.11	1017.0	1006.5
29.12	993.0	1005.9
29.13	1018.0	1005.3
29.14	1019.0	1004.7
29.15	1018.0	1004.1
29.16	1031.0	1003.6
29.17	1069.0	1003.0
29.18	1049.0	1002.4
29.19	997.0	1001.9
29.2	1037.0	1001.3
29.21	1042.0	1000.7
29.22	1021.0	1000.1
29.23	1032.0	999.6
29.24	1031.0	999.0
29.25	1014.0	998.4
29.26	1000.0	997.9
29.27	1004.0	997.3
29.28	1016.0	996.8
29.29	1033.0	996.2
29.3	1025.0	995.6
29.31	1017.0	995.1
29.32	1036.0	994.5
29.33	1033.0	994.0
29.34	1039.0	993.4
29.35	1026.0	992.9
29.36	995.0	992.3
29.37	1011.0	991.8
29.38	1028.0	991.2
29.39	980.0	990.7
29.4	998.0	990.1
29.41	1017.0	989.6
29.42	1017.0	989.1
29.43	1009.0	988.5
29.44	981.0	988.0
29.45	975.0	987.4
29.46	1012.0	986.9
29.47	1024.0	986.4
29.48	1006.0	985.8
29.49	988.0	985.3
29.5	1033.0	984.8
29.51	1062.0	984.2
29.52	1040.0	983.7
29.53	1000.0	983.2
29.54	993.0	982.6
29.55	1008.0	982.1
29.56	1008.0	981.6
29.57	1020.0	981.1
29.58	1015.0	980.6
29.59	1023.0	980.0
29.6	1021.0	979.5
29.61	1002.0	979.0
29.62	1009.0	978.5
29.63	982.0	978.0
29.64	1001.0	977.5
29.65	1004.0	976.9
29.66	967.0	976.4
29.67	960.0	975.9
29.68	989.0	975.4
29.69	995.0	974.9
29.7	975.0	974.4
29.71	980.0	973.9
29.72	1003.0	973.4
29.73	998.0	972.9
29.74	1004.0	972.4
29.75	977.0	971.9
29.76	967.0	971.4
29.77	993.0	970.9
29.78	1008.0	970.4
29.79	997.0	969.9
29.8	1035.0	969.5
29.81	1052.0	969.0
29.82	1028.0	968.5
29.83	1011.0	968.0
29.84	1005.0	967.5
29.85	986.0	967.0
29.86	978.0	966.5
29.87	975.0	966.1
29.88	969.0	965.6
29.89	969.0	965.1
29.9	969.0	964.6
29.91	973.0	964.1
29.92	976.0	963.7
29.93	960.0	963.2
29.94	948.0	962.7
29.95	968.0	962.3
29.96	980.0	961.8
29.97	976.0	961.3
29.98	990.0	960.9
29.99	997.0	960.4
30.0	990.0	959.9
30.01	1015.0	959.5
30.02	987.0	959.0
30.03	971.0	958.5
30.04	986.0	958.1
30.05	967.0	957.6
30.06	997.0	957.2
30.07	997.0	956.7
30.08	975.0	956.3
30.09	968.0	955.8
30.1	958.0	955.4
30.11	925.0	954.9
30.12	932.0	954.5
30.13	984.0	954.0
30.14	959.0	953.6
30.15	953.0	953.1
30.16	976.0	952.7
30.17	982.0	952.3
30.18	955.0	951.8
30.19	929.0	951.4
30.2	944.0	950.9
30.21	947.0	950.5
30.22	997.0	950.1
30.23	978.0	949.6
30.24	941.0	949.2
30.25	986.0	948.8
30.26	978.0	948.3
30.27	964.0	947.9
30.28	943.0	947.5
30.29	952.0	947.1
30.3	988.0	946.6
30.31	953.0	946.2
30.32	984.0	945.8
30.33	961.0	945.4
30.34	939.0	945.0
30.35	948.0	944.5
30.36	953.0	944.1
30.37	936.0	943.7
30.38	945.0	943.3
30.39	978.0	942.9
30.4	977.0	942.5
30.41	994.0	942.1
30.42	1008.0	941.6
30.43	965.0	941.2
30.44	953.0	940.8
30.45	982.0	940.4
30.46	984.0	940.0
30.47	936.0	939.6
30.48	972.0	939.2
30.49	988.0	938.8
30.5	982.0	938.4
30.51	954.0	938.0
30.52	971.0	937.6
30.53	935.0	937.2
30.54	933.0	936.8
30.55	964.0	936.4
30.56	969.0	936.0
30.57	959.0	935.7
30.58	967.0	935.3
30.59	971.0	934.9
30.6	951.0	934.5
30.61	945.0	934.1
30.62	942.0	933.7
30.63	951.0	933.3
30.64	935.0	932.9
30.65	946.0	932.6
30.66	963.0	932.2
30.67	948.0	931.8
30.68	892.0	931.4
30.69	928.0	931.1
30.7	935.0	930.7
30.71	934.0	930.3
30.72	972.0	929.9
30.73	959.0	929.6
30.74	981.0	929.2
30.75	993.0	928.8
30.76	988.0	928.4
30.77	935.0	928.1
30.78	939.0	927.7
30.79	918.0	927.3
30.8	908.0	927.0
30.81	943.0	926.6
30.82	962.0	926.3
30.83	977.0	925.9
30.84	963.0	925.5
30.85	967.0	925.2
30.86	939.0	924.8
30.87	954.0	924.5
30.88	955.0	924.1
30.89	987.0	923.8
30.9	962.0	923.4
30.91	945.0	923.1
30.92	942.0	922.7
30.93	960.0	922.4
30.94	979.0	922.0
30.95	956.0	921.7
30.96	978.0	921.3
30.97	943.0	921.0
30.98	959.0	920.6
30.99	955.0	920.3
31.0	928.0	919.9
31.01	905.0	919.6
31.02	893.0	919.3
31.03	908.0	918.9
31.04	903.0	918.6
31.05	915.0	918.2
31.06	935.0	917.9
31.07	947.0	917.6
31.08	946.0	917.2
31.09	923.0	916.9
31.1	960.0	916.6
31.11	938.0	916.3
31.12	943.0	915.9
31.13	956.0	915.6
31.14	937.0	915.3
31.15	906.0	914.9
31.16	889.0	914.6
31.17	903.0	914.3
31.18	948.0	914.0
31.19	936.0	913.7
31.2	909.0	913.3
31.21	964.0	913.0
31.22	997.0	912.7
31.23	978.0	912.4
31.24	925.0	912.1
31.25	905.0	911.8
31.26	919.0	911.4
31.27	930.0	911.1
31.28	957.0	910.8
31.29	919.0	910.5
31.3	954.0	910.2
31.31	936.0	909.9
31.32	912.0	909.6
31.33	919.0	909.3
31.34	939.0	909.0
31.35	937.0	908.7
31.36	945.0	908.4
31.37	918.0	908.1
31.38	912.0	907.8
31.39	944.0	907.5
31.4	942.0	907.2
31.41	964.0	906.9
31.42	931.0	906.6
31.43	876.0	906.3
31.44	955.0	906.0
31.45	958.0	905.7
31.46	954.0	905.4
31.47	923.0	905.1
31.48	937.0	904.8
31.49	942.0	904.5
31.5	913.0	904.2
31.51	915.0	903.9
31.52	895.0	903.6
31.53	901.0	903.4
31.54	961.0	903.1
31.55	929.0	902.8
31.56	932.0	902.5
31.57	931.0	902.2
31.58	910.0	901.9
31.59	931.0	901.7
31.6	921.0	901.4
31.61	921.0	901.1
31.62	930.0	900.8
31.63	938.0	900.5
31.64	926.0	900.3
31.65	921.0	900.0
31.66	924.0	899.7
31.67	904.0	899.4
31.68	914.0	899.2
31.69	939.0	898.9
31.7	933.0	898.6
31.71	927.0	898.4
31.72	894.0	898.1
31.73	931.0	897.8
31.74	960.0	897.6
31.75	951.0	897.3
31.76	935.0	897.0
31.77	926.0	896.8
31.78	945.0	896.5
31.79	923.0	896.2
31.8	947.0	896.0
31.81	980.0	895.7
31.82	925.0	895.5
31.83	962.0	895.2
31.84	957.0	895.0
31.85	943.0	894.7
31.86	948.0	894.4
31.87	930.0	894.2
31.88	940.0	893.9
31.89	968.0	893.7
31.9	945.0	893.4
31.91	896.0	893.2
31.92	897.0	892.9
31.93	924.0	892.7
31.94	918.0	892.4
31.95	931.0	892.2
31.96	933.0	891.9
31.97	926.0	891.7
31.98	913.0	891.4
31.99	925.0	891.2
32.0	937.0	891.0
32.01	942.0	890.7
32.02	968.0	890.5
32.03	967.0	890.2
32.04	907.0	890.0
32.05	934.0	889.8
32.06	956.0	889.5
32.07	921.0	889.3
32.08	889.0	889.1
32.09	901.0	888.8
32.1	894.0	888.6
32.11	890.0	888.4
32.12	906.0	888.1
32.13	906.0	887.9
32.14	961.0	887.7
32.15	918.0	887.4
32.16	885.0	887.2
32.17	915.0	887.0
32.18	909.0	886.7
32.19	900.0	886.5
32.2	907.0	886.3
32.21	891.0	886.1
32.22	917.0	885.8
32.23	922.0	885.6
32.24	939.0	885.4
32.25	938.0	885.2
32.26	929.0	885.0
32.27	927.0	884.7
32.28	948.0	884.5
32.29	938.0	884.3
32.3	921.0	884.1
32.31	937.0	883.9
32.32	915.0	883.6
32.33	924.0	883.4
32.34	915.0	883.2
32.35	888.0	883.0
32.36	880.0	882.8
32.37	889.0	882.6
32.38	867.0	882.4
32.39	873.0	882.2
32.4	871.0	881.9
32.41	895.0	881.7
32.42	891.0	881.5
32.43	881.0	881.3
32.44	907.0	881.1
32.45	902.0	880.9
32.46	885.0	880.7
32.47	909.0	880.5
32.48	907.0	880.3
32.49	901.0	880.1
32.5	911.0	879.9
32.51	894.0	879.7
32.52	884.0	879.5
32.53	892.0	879.3
32.54	878.0	879.1
32.55	882.0	878.9
32.56	904.0	878.7
32.57	918.0	878.5
32.58	906.0	878.3
32.59	915.0	878.1
32.6	917.0	877.9
32.61	913.0	877.7
32.62	901.0	877.5
32.63	901.0	877.3
32.64	918.0	877.2
32.65	899.0	877.0
32.66	916.0	876.8
32.67	922.0	876.6
32.68	927.0	876.4
32.69	925.0	876.2
32.7	897.0	876.0
32.71	907.0	875.8
32.72	873.0	875.6
32.73	890.0	875.5
32.74	891.0	875.3
32.75	888.0	875.1
32.76	894.0	874.9
32.77	894.0	874.7
32.78	914.0	874.5
32.79	958.0	874.4
32.8	939.0	874.2
32.81	882.0	874.0
32.82	895.0	873.8
32.83	918.0	873.7
32.84	925.0	873.5
32.85	934.0	873.3
32.86	955.0	873.1
32.87	928.0	872.9
32.88	903.0	872.8
32.89	889.0	872.6
32.9	903.0	872.4
32.91	895.0	872.3
32.92	903.0	872.1
32.93	933.0	871.9
32.94	935.0	871.7
32.95	912.0	871.6
32.96	923.0	871.4
32.97	935.0	871.2
32.98	892.0	871.1
32.99	888.0	870.9
33.0	934.0	870.7
33.01	925.0	870.6
33.02	919.0	870.4
33.03	877.0	870.2
33.04	926.0	870.1
33.05	927.0	869.9
33.06	929.0	869.7
33.07	914.0	869.6
33.08	924.0	869.4
33.09	894.0	869.3
33.1	864.0	869.1
33.11	869.0	868.9
33.12	879.0	868.8
33.13	894.0	868.6
33.14	911.0	868.5
33.15	887.0	868.3
33.16	874.0	868.2
33.17	861.0	868.0
33.18	885.0	867.8
33.19	855.0	867.7
33.2	868.0	867.5
33.21	937.0	867.4
33.22	936.0	867.2
33.23	905.0	867.1
33.24	912.0	866.9
33.25	910.0	866.8
33.26	907.0	866.6
33.27	910.0	866.5
33.28	878.0	866.3
33.29	885.0	866.2
33.3	876.0	866.0
33.31	871.0	865.9
33.32	869.0	865.7
33.33	879.0	865.6
33.34	890.0	865.4
33.35	881.0	865.3
33.36	919.0	865.2
33.37	915.0	865.0
33.38	896.0	864.9
33.39	878.0	864.7
33.4	880.0	864.6
33.41	888.0	864.4
33.42	913.0	864.3
33.43	887.0	864.2
33.44	928.0	864.0
33.45	907.0	863.9
33.46	878.0	863.7
33.47	882.0	863.6
33.48	881.0	863.5
33.49	879.0	863.3
33.5	906.0	863.2
33.51	918.0	863.1
33.52	920.0	862.9
33.53	872.0	862.8
33.54	860.0	862.6
33.55	912.0	862.5
33.56	921.0	862.4
33.57	895.0	862.2
33.58	868.0	862.1
33.59	900.0	862.0
33.6	893.0	861.9
33.61	913.0	861.7
33.62	941.0	861.6
33.63	932.0	861.5
33.64	885.0	861.3
33.65	899.0	861.2
33.66	906.0	861.1
33.67	912.0	860.9
33.68	897.0	860.8
33.69	875.0	860.7
33.7	882.0	860.6
33.71	873.0	860.4
33.72	894.0	860.3
33.73	939.0	860.2
33.74	924.0	860.1
33.75	903.0	859.9
33.76	911.0	859.8
33.77	918.0	859.7
33.78	899.0	859.6
33.79	913.0	859.4
33.8	875.0	859.3
33.81	878.0	859.2
33.82	883.0	859.1
33.83	878.0	859.0
33.84	923.0	858.8
33.85	905.0	858.7
33.86	892.0	858.6
33.87	864.0	858.5
33.88	891.0	858.4
33.89	914.0	858.2
33.9	898.0	858.1
33.91	911.0	858.0
33.92	876.0	857.9
33.93	872.0	857.8
33.94	901.0	857.7
33.95	892.0	857.6
33.96	880.0	857.4
33.97	895.0	857.3
33.98	871.0	857.2
33.99	853.0	857.1
34.0	859.0	857.0
34.01	857.0	856.9
34.02	884.0	856.8
34.03	890.0	856.6
34.04	876.0	856.5
34.05	889.0	856.4
34.06	903.0	856.3
34.07	851.0	856.2
34.08	867.0	856.1
34.09	890.0	856.0
34.1	904.0	855.9
34.11	868.0	855.8
34.12	859.0	855.7
34.13	860.0	855.6
34.14	859.0	855.4
34.15	875.0	855.3
34.16	876.0	855.2
34.17	884.0	855.1
34.18	903.0	855.0
34.19	919.0	854.9
34.2	912.0	854.8
34.21	896.0	854.7
34.22	873.0	854.6
34.23	852.0	854.5
34.24	857.0	854.4
34.25	859.0	854.3
34.26	885.0	854.2
34.27	870.0	854.1
34.28	895.0	854.0
34.29	888.0	853.9
34.3	884.0	853.8
34.31	873.0	853.7
34.32	865.0	853.6
34.33	871.0	853.5
34.34	866.0	853.4
34.35	887.0	853.3
34.36	877.0	853.2
34.37	868.0	853.1
34.38	865.0	853.0
34.39	883.0	852.9
34.4	914.0	852.8
34.41	902.0	852.7
34.42	871.0	852.6
34.43	858.0	852.5
34.44	856.0	852.4
34.45	838.0	852.3
34.46	843.0	852.2
34.47	876.0	852.1
34.48	876.0	852.0
34.49	885.0	851.9
34.5	922.0	851.8
34.51	889.0	851.7
34.52	879.0	851.6
34.53	872.0	851.5
34.54	849.0	851.5
34.55	850.0	851.4
34.56	878.0	851.3
34.57	888.0	851.2
34.58	870.0	851.1
34.59	871.0	851.0
34.6	876.0	850.9
34.61	866.0	850.8
34.62	859.0	850.7
34.63	859.0	850.6
34.64	873.0	850.5
34.65	863.0	850.4
34.66	847.0	850.4
34.67	853.0	850.3
34.68	878.0	850.2
34.69	910.0	850.1
34.7	907.0	850.0
34.71	908.0	849.9
34.72	886.0	849.8
34.73	861.0	849.7
34.74	847.0	849.6
34.75	864.0	849.6
34.76	873.0	849.5
34.77	885.0	849.4
34.78	867.0	849.3
34.79	853.0	849.2
34.8	859.0	849.1
34.81	855.0	849.0
34.82	836.0	849.0
34.83	840.0	848.9
34.84	872.0	848.8
34.85	901.0	848.7
34.86	891.0	848.6
34.87	879.0	848.5
34.88	883.0	848.4
34.89	876.0	848.4
34.9	871.0	848.3
34.91	867.0	848.2
34.92	870.0	848.1
34.93	884.0	848.0
34.94	899.0	847.9
34.95	894.0	847.9
34.96	877.0	847.8
34.97	870.0	847.7
34.98	872.0	847.6
34.99	889.0	847.5
35.0	883.0	847.4
35.01	866.0	847.4
35.02	848.0	847.3
35.03	875.0	847.2
35.04	892.0	847.1
35.05	868.0	847.0
35.06	861.0	847.0
35.07	869.0	846.9
35.08	852.0	846.8
35.09	853.0	846.7
35.1	871.0	846.6
35.11	876.0	846.6
35.12	889.0	846.5
35.13	901.0	846.4
35.14	882.0	846.3
35.15	845.0	846.2
35.16	875.0	846.2
35.17	892.0	846.1
35.18	880.0	846.0
35.19	873.0	845.9
35.2	878.0	845.8
35.21	859.0	845.8
35.22	843.0	845.7
35.23	857.0	845.6
35.24	860.0	845.5
35.25	865.0	845.5
35.26	861.0	845.4
35.27	849.0	845.3
35.28	854.0	845.2
35.29	841.0	845.1
35.3	837.0	845.1
35.31	849.0	845.0
35.32	861.0	844.9
35.33	849.0	844.8
35.34	849.0	844.8
35.35	867.0	844.7
35.36	879.0	844.6
35.37	899.0	844.5
35.38	897.0	844.5
35.39	873.0	844.4
35.4	874.0	844.3
35.41	868.0	844.2
35.42	846.0	844.2
35.43	843.0	844.1
35.44	855.0	844.0
35.45	852.0	843.9
35.46	868.0	843.9
35.47	879.0	843.8
35.48	884.0	843.7
35.49	881.0	843.6
35.5	860.0	843.6
35.51	856.0	843.5
35.52	865.0	843.4
35.53	879.0	843.3
35.54	889.0	843.3
35.55	883.0	843.2
35.56	885.0	843.1
35.57	879.0	843.0
35.58	856.0	843.0
35.59	867.0	842.9
35.6	876.0	842.8
35.61	869.0	842.7
35.62	855.0	842.7
35.63	857.0	842.6
35.64	884.0	842.5
35.65	879.0	842.4
35.66	872.0	842.4
35.67	890.0	842.3
35.68	889.0	842.2
35.69	879.0	842.1
35.7	886.0	842.1
35.71	862.0	842.0
35.72	835.0	841.9
35.73	847.0	841.8
35.74	870.0	841.8
35.75	856.0	841.7
35.76	843.0	841.6
35.77	856.0	841.6
35.78	866.0	841.5
35.79	851.0	841.4
35.8	824.0	841.3
35.81	838.0	841.3
35.82	846.0	841.2
35.83	836.0	841.1
35.84	860.0	841.0
35.85	861.0	841.0
35.86	852.0	840.9
35.87	845.0	840.8
35.88	845.0	840.7
35.89	848.0	840.7
35.9	834.0	840.6
35.91	840.0	840.5
35.92	849.0	840.5
35.93	850.0	840.4
35.94	863.0	840.3
35.95	863.0	840.2
35.96	843.0	840.2
35.97	841.0	840.1
35.98	850.0	840.0
35.99	860.0	839.9
36.0	869.0	839.9
36.01	852.0	839.8
36.02	834.0	839.7
36.03	851.0	839.6
36.04	869.0	839.6
36.05	869.0	839.5
36.06	853.0	839.4
36.07	846.0	839.3
36.08	857.0	839.3
36.09	854.0	839.2
36.1	846.0	839.1
36.11	858.0	839.1
36.12	882.0	839.0
36.13	895.0	838.9
36.14	890.0	838.8
36.15	887.0	838.8
36.16	873.0	838.7
36.17	840.0	838.6
36.18	813.0	838.5
36.19	828.0	838.5
36.2	874.0	838.4
36.21	891.0	838.3
36.22	880.0	838.2
36.23	864.0	838.2
36.24	853.0	838.1
36.25	849.0	838.0
36.26	862.0	837.9
36.27	864.0	837.9
36.28	862.0	837.8
36.29	878.0	837.7
36.3	873.0	837.6
36.31	869.0	837.6
36.32	882.0	837.5
36.33	894.0	837.4
36.34	888.0	837.3
36.35	875.0	837.3
36.36	870.0	837.2
36.37	854.0	837.1
36.38	841.0	837.0
36.39	836.0	836.9
36.4	841.0	836.9
36.41	846.0	836.8
36.42	849.0	836.7
36.43	860.0	836.6
36.44	874.0	836.6
36.45	877.0	836.5
36.46	866.0	836.4
36.47	846.0	836.3
36.48	858.0	836.3
36.49	876.0	836.2
36.5	858.0	836.1
36.51	857.0	836.0
36.52	860.0	836.0
36.53	882.0	835.9
36.54	900.0	835.8
36.55	879.0	835.7
36.56	853.0	835.7
36.57	853.0	835.6
36.58	873.0	835.5
36.59	859.0	835.4
36.6	839.0	835.3
36.61	841.0	835.3
36.62	859.0	835.2
36.63	868.0	835.1
36.64	878.0	835.0
36.65	867.0	835.0
36.66	844.0	834.9
36.67	874.0	834.8
36.68	885.0	834.7
36.69	857.0	834.6
36.7	838.0	834.6
36.71	843.0	834.5
36.72	857.0	834.4
36.73	853.0	834.3
36.74	845.0	834.3
36.75	846.0	834.2
36.76	860.0	834.1
36.77	872.0	834.0
36.78	854.0	834.0
36.79	852.0	833.9
36.8	878.0	833.8
36.81	879.0	833.7
36.82	859.0	833.6
36.83	863.0	833.6
36.84	885.0	833.5
36.85	875.0	833.4
36.86	855.0	833.3
36.87	879.0	833.3
36.88	906.0	833.2
36.89	880.0	833.1
36.9	854.0	833.0
36.91	852.0	832.9
36.92	860.0	832.9
36.93	863.0	832.8
36.94	864.0	832.7
36.95	877.0	832.6
36.96	877.0	832.6
36.97	869.0	832.5
36.98	903.0	832.4
36.99	928.0	832.3
37.0	923.0	832.2
37.01	902.0	832.2
37.02	895.0	832.1
37.03	895.0	832.0
37.04	910.0	831.9
37.05	916.0	831.9
37.06	904.0	831.8
37.07	908.0	831.7
37.08	901.0	831.6
37.09	915.0	831.5
37.1	906.0	831.5
37.11	886.0	831.4
37.12	886.0	831.3
37.13	885.0	831.2
37.14	877.0	831.2
37.15	879.0	831.1
37.16	871.0	831.0
37.17	861.0	830.9
37.18	861.0	830.8
37.19	849.0	830.8
37.2	862.0	830.7
37.21	885.0	830.6
37.22	908.0	830.5
37.23	907.0	830.5
37.24	871.0	830.4
37.25	851.0	830.3
37.26	866.0	830.2
37.27	883.0	830.1
37.28	885.0	830.1
37.29	889.0	830.0
37.3	902.0	829.9
37.31	878.0	829.8
37.32	863.0	829.8
37.33	868.0	829.7
37.34	867.0	829.6
37.35	859.0	829.5
37.36	845.0	829.4
37.37	873.0	829.4
37.38	896.0	829.3
37.39	897.0	829.2
37.4	908.0	829.1
37.41	902.0	829.1
37.42	901.0	829.0
37.43	901.0	828.9
37.44	889.0	828.8
37.45	866.0	828.7
37.46	880.0	828.7
37.47	889.0	828.6
37.48	854.0	828.5
37.49	853.0	828.4
37.5	860.0	828.4
37.51	864.0	828.3
37.52	882.0	828.2
37.53	880.0	828.1
37.54	851.0	828.0
37.55	827.0	828.0
37.56	853.0	827.9
37.57	864.0	827.8
37.58	843.0	827.7
37.59	817.0	827.7
37.6	826.0	827.6
37.61	877.0	827.5
37.62	900.0	827.4
37.63	891.0	827.4
37.64	870.0	827.3
37.65	867.0	827.2
37.66	859.0	827.1
37.67	863.0	827.0
37.68	889.0	827.0
37.69	900.0	826.9
37.7	895.0	826.8
37.71	897.0	826.7
37.72	885.0	826.7
37.73	862.0	826.6
37.74	880.0	826.5
37.75	887.0	826.4
37.76	875.0	826.4
37.77	873.0	826.3
37.78	861.0	826.2
37.79	869.0	826.1
37.8	866.0	826.1
37.81	854.0	826.0
37.82	880.0	825.9
37.83	901.0	825.8
37.84	913.0	825.8
37.85	920.0	825.7
37.86	914.0	825.6
37.87	899.0	825.5
37.88	875.0	825.4
37.89	883.0	825.4
37.9	903.0	825.3
37.91	921.0	825.2
37.92	922.0	825.1
37.93	888.0	825.1
37.94	901.0	825.0
37.95	923.0	824.9
37.96	930.0	824.8
37.97	937.0	824.8
37.98	936.0	824.7
37.99	946.0	824.6
38.0	973.0	824.5
38.01	1003.0	824.5
38.02	1007.0	824.4
38.03	1009.0	824.3
38.04	1069.0	824.2
38.05	1118.0	824.2
38.06	1132.0	824.1
38.07	1157.0	824.0
38.08	1155.0	824.0
38.09	1189.0	823.9
38.1	1231.0	823.8
38.11	1287.0	823.7
38.12	1359.0	823.7
38.13	1453.0	823.6
38.14	1511.0	823.5
38.15	1568.0	823.4
38.16	1653.0	823.4
38.17	1731.0	823.3
38.18	1824.0	823.2
38.19	1937.0	823.1
38.2	2078.0	823.1
38.21	2158.0	823.0
38.22	2224.0	822.9
38.23	2262.0	822.9
38.24	2275.0	822.8
38.25	2315.0	822.7
38.26	2308.0	822.6
38.27	2255.0	822.6
38.28	2191.0	822.5
38.29	2162.0	822.4
38.3	2141.0	822.3
38.31	2116.0	822.3
38.32	2023.0	822.2
38.33	1941.0	822.1
38.34	1871.0	822.1
38.35	1773.0	822.0
38.36	1673.0	821.9
38.37	1601.0	821.8
38.38	1534.0	821.8
38.39	1492.0	821.7
38.4	1426.0	821.6
38.41	1349.0	821.6
38.42	1274.0	821.5
38.43	1205.0	821.4
38.44	1163.0	821.3
38.45	1117.0	821.3
38.46	1100.0	821.2
38.47	1071.0	821.1
38.48	1057.0	821.1
38.49	1057.0	821.0
38.5	1016.0	820.9
38.51	976.0	820.8
38.52	982.0	820.8
38.53	975.0	820.7
38.54	944.0	820.6
38.55	972.0	820.6
38.56	978.0	820.5
38.57	956.0	820.4
38.58	959.0	820.4
38.59	937.0	820.3
38.6	910.0	820.2
38.61	906.0	820.2
38.62	895.0	820.1
38.63	901.0	820.0
38.64	920.0	819.9
38.65	922.0	819.9
38.66	905.0	819.8
38.67	874.0	819.7
38.68	884.0	819.7
38.69	891.0	819.6
38.7	866.0	819.5
38.71	858.0	819.5
38.72	880.0	819.4
38.73	894.0	819.3
38.74	894.0	819.3
38.75	895.0	819.2
38.76	888.0	819.1
38.77	886.0	819.1
38.78	870.0	819.0
38.79	858.0	818.9
38.8	880.0	818.9
38.81	883.0	818.8
38.82	894.0	818.7
38.83	898.0	818.7
38.84	875.0	818.6
38.85	848.0	818.5
38.86	843.0	818.5
38.87	857.0	818.4
38.88	856.0	818.3
38.89	839.0	818.3
38.9	872.0	818.2
38.91	910.0	818.1
38.92	903.0	818.1
38.93	890.0	818.0
38.94	862.0	818.0
38.95	847.0	817.9
38.96	854.0	817.8
38.97	891.0	817.8
38.98	887.0	817.7
38.99	880.0	817.6
39.0	876.0	817.6
39.01	884.0	817.5
39.02	890.0	817.4
39.03	899.0	817.4
39.04	885.0	817.3
39.05	880.0	817.3
39.06	913.0	817.2
39.07	937.0	817.1
39.08	931.0	817.1
39.09	929.0	817.0
39.1	931.0	816.9
39.11	946.0	816.9
39.12	943.0	816.8
39.13	947.0	816.8
39.14	943.0	816.7
39.15	950.0	816.6
39.16	988.0	816.6
39.17	957.0	816.5
39.18	950.0	816.5
39.19	967.0	816.4
39.2	959.0	816.3
39.21	960.0	816.3
39.22	925.0	816.2
39.23	908.0	816.1
39.24	894.0	816.1
39.25	881.0	816.0
39.26	889.0	816.0
39.27	929.0	815.9
39.28	917.0	815.9
39.29	890.0	815.8
39.3	916.0	815.7
39.31	910.0	815.7
39.32	891.0	815.6
39.33	922.0	815.6
39.34	884.0	815.5
39.35	872.0	815.4
39.36	855.0	815.4
39.37	852.0	815.3
39.38	880.0	815.3
39.39	870.0	815.2
39.4	890.0	815.2
39.41	893.0	815.1
39.42	863.0	815.0
39.43	887.0	815.0
39.44	887.0	814.9
39.45	874.0	814.9
39.46	856.0	814.8
39.47	849.0	814.8
39.48	870.0	814.7
39.49	863.0	814.7
39.5	838.0	814.6
39.51	863.0	814.5
39.52	879.0	814.5
39.53	876.0	814.4
39.54	830.0	814.4
39.55	832.0	814.3
39.56	865.0	814.3
39.57	855.0	814.2
39.58	841.0	814.2
39.59	817.0	814.1
39.6	836.0	814.1
39.61	830.0	814.0
39.62	830.0	813.9
39.63	829.0	813.9
39.64	861.0	813.8
39.65	852.0	813.8
39.66	870.0	813.7
39.67	856.0	813.7
39.68	863.0	813.6
39.69	881.0	813.6
39.7	896.0	813.5
39.71	898.0	813.5
39.72	901.0	813.4
39.73	898.0	813.4
39.74	905.0	813.3
39.75	909.0	813.3
39.76	901.0	813.2
39.77	900.0	813.2
39.78	922.0	813.1
39.79	932.0	813.1
39.8	940.0	813.0
39.81	983.0	813.0
39.82	986.0	812.9
39.83	1008.0	812.9
39.84	1029.0	812.8
39.85	1036.0	812.8
39.86	1035.0	812.7
39.87	1021.0	812.7
39.88	1008.0	812.6
39.89	1003.0	812.6
39.9	996.0	812.6
39.91	999.0	812.5
39.92	1007.0	812.5
39.93	1038.0	812.4
39.94	1028.0	812.4
39.95	968.0	812.3
39.96	1000.0	812.3
39.97	955.0	812.2
39.98	933.0	812.2
39.99	927.0	812.1
40.0	942.0	812.1
40.01	932.0	812.1
40.02	926.0	812.0
40.03	911.0	812.0
40.04	931.0	811.9
40.05	923.0	811.9
40.06	912.0	811.8
40.07	898.0	811.8
40.08	881.0	811.7
40.09	877.0	811.7
40.1	885.0	811.7
40.11	891.0	811.6
40.12	900.0	811.6
40.13	901.0	811.5
40.14	883.0	811.5
40.15	854.0	811.5
40.16	856.0	811.4
40.17	868.0	811.4
40.18	876.0	811.3
40.19	862.0	811.3
40.2	853.0	811.3
40.21	881.0	811.2
40.22	876.0	811.2
40.23	826.0	811.1
40.24	812.0	811.1
40.25	828.0	811.1
40.26	877.0	811.0
40.27	876.0	811.0
40.28	866.0	810.9
40.29	869.0	810.9
40.3	867.0	810.9
40.31	850.0	810.8
40.32	835.0	810.8
40.33	839.0	810.8
40.34	848.0	810.7
40.35	843.0	810.7
40.36	840.0	810.7
40.37	808.0	810.6
40.38	847.0	810.6
40.39	841.0	810.5
40.4	832.0	810.5
40.41	823.0	810.5
40.42	843.0	810.4
40.43	818.0	810.4
40.44	840.0	810.4
40.45	864.0	810.3
40.46	866.0	810.3
40.47	862.0	810.3
40.48	856.0	810.2
40.49	821.0	810.2
40.5	796.0	810.2
40.51	801.0	810.1
40.52	851.0	810.1
40.53	855.0	810.1
40.54	861.0	810.0
40.55	871.0	810.0
40.56	862.0	810.0
40.57	865.0	810.0
40.58	866.0	809.9
40.59	862.0	809.9
40.6	899.0	809.9
40.61	851.0	809.8
40.62	828.0	809.8
40.63	860.0	809.8
40.64	859.0	809.8
40.65	854.0	809.7
40.66	868.0	809.7
40.67	852.0	809.7
40.68	867.0	809.6
40.69	825.0	809.6
40.7	804.0	809.6
40.71	837.0	809.6
40.72	837.0	809.5
40.73	846.0	809.5
40.74	840.0	809.5
40.75	846.0	809.5
40.76	859.0	809.4
40.77	851.0	809.4
40.78	819.0	809.4
40.79	817.0	809.4
40.8	858.0	809.3
40.81	866.0	809.3
40.82	860.0	809.3
40.83	851.0	809.3
40.84	851.0	809.2
40.85	839.0	809.2
40.86	870.0	809.2
40.87	847.0	809.2
40.88	833.0	809.2
40.89	834.0	809.1
40.9	847.0	809.1
40.91	821.0	809.1
40.92	792.0	809.1
40.93	840.0	809.1
40.94	854.0	809.0
40.95	829.0	809.0
40.96	814.0	809.0
40.97	834.0	809.0
40.98	878.0	809.0
40.99	877.0	808.9
41.0	857.0	808.9
41.01	823.0	808.9
41.02	852.0	808.9
41.03	864.0	808.9
41.04	861.0	808.9
41.05	839.0	808.8
41.06	797.0	808.8
41.07	824.0	808.8
41.08	840.0	808.8
41.09	838.0	808.8
41.1	862.0	808.8
41.11	835.0	808.8
41.12	832.0	808.7
41.13	836.0	808.7
41.14	855.0	808.7
41.15	848.0	808.7
41.16	850.0	808.7
41.17	832.0	808.7
41.18	794.0	808.7
41.19	811.0	808.6
41.2	820.0	808.6
41.21	810.0	808.6
41.22	835.0	808.6
41.23	882.0	808.6
41.24	877.0	808.6
41.25	857.0	808.6
41.26	811.0	808.6
41.27	849.0	808.6
41.28	842.0	808.6
41.29	833.0	808.6
41.3	835.0	808.5
41.31	823.0	808.5
41.32	851.0	808.5
41.33	869.0	808.5
41.34	833.0	808.5
41.35	873.0	808.5
41.36	895.0	808.5
41.37	850.0	808.5
41.38	835.0	808.5
41.39	850.0	808.5
41.4	855.0	808.5
41.41	847.0	808.5
41.42	848.0	808.5
41.43	852.0	808.5
41.44	847.0	808.5
41.45	828.0	808.5
41.46	826.0	808.5
41.47	827.0	808.5
41.48	824.0	808.5
41.49	842.0	808.5
41.5	881.0	808.5
41.51	860.0	808.5
41.52	840.0	808.4
41.53	794.0	808.4
41.54	824.0	808.4
41.55	842.0	808.4
41.56	838.0	808.5
41.57	871.0	808.5
41.58	870.0	808.5
41.59	845.0	808.5
41.6	820.0	808.5
41.61	829.0	808.5
41.62	846.0	808.5
41.63	856.0	808.5
41.64	874.0	808.5
41.65	841.0	808.5
41.66	790.0	808.5
41.67	829.0	808.5
41.68	857.0	808.5
41.69	878.0	808.5
41.7	857.0	808.5
41.71	804.0	808.5
41.72	830.0	808.5
41.73	852.0	808.5
41.74	857.0	808.5
41.75	830.0	808.5
41.76	804.0	808.5
41.77	834.0	808.6
41.78	844.0	808.6
41.79	816.0	808.6
41.8	842.0	808.6
41.81	855.0	808.6
41.82	852.0	808.6
41.83	846.0	808.6
41.84	848.0	808.6
41.85	860.0	808.6
41.86	869.0	808.6
41.87	830.0	808.7
41.88	829.0	808.7
41.89	875.0	808.7
41.9	851.0	808.7
41.91	863.0	808.7
41.92	829.0	808.7
41.93	821.0	808.7
41.94	831.0	808.8
41.95	860.0	808.8
41.96	862.0	808.8
41.97	854.0	808.8
41.98	857.0	808.8
41.99	851.0	808.8
42.0	854.0	808.8
42.01	851.0	808.9
42.02	844.0	808.9
42.03	874.0	808.9
42.04	870.0	808.9
42.05	850.0	808.9
42.06	822.0	809.0
42.07	835.0	809.0
42.08	813.0	809.0
42.09	808.0	809.0
42.1	839.0	809.0
42.11	847.0	809.1
42.12	848.0	809.1
42.13	834.0	809.1
42.14	805.0	809.1
42.15	818.0	809.2
42.16	865.0	809.2
42.17	871.0	809.2
42.18	837.0	809.2
42.19	815.0	809.2
42.2	817.0	809.3
42.21	832.0	809.3
42.22	830.0	809.3
42.23	819.0	809.3
42.24	832.0	809.4
42.25	885.0	809.4
42.26	873.0	809.4
42.27	816.0	809.5
42.28	828.0	809.5
42.29	811.0	809.5
42.3	814.0	809.5
42.31	812.0	809.6
42.32	861.0	809.6
42.33	849.0	809.6
42.34	841.0	809.7
42.35	802.0	809.7
42.36	854.0	809.7
42.37	865.0	809.8
42.38	841.0	809.8
42.39	847.0	809.8
42.4	833.0	809.9
42.41	826.0	809.9
42.42	821.0	809.9
42.43	860.0	810.0
42.44	867.0	810.0
42.45	813.0	810.0
42.46	812.0	810.1
42.47	867.0	810.1
42.48	849.0	810.1
42.49	844.0	810.2
42.5	843.0	810.2
42.51	820.0	810.3
42.52	808.0	810.3
42.53	819.0	810.3
42.54	822.0	810.4
42.55	828.0	810.4
42.56	827.0	810.4
42.57	847.0	810.5
42.58	864.0	810.5
42.59	877.0	810.6
42.6	874.0	810.6
42.61	874.0	810.7
42.62	859.0	810.7
42.63	870.0	810.7
42.64	864.0	810.8
42.65	867.0	810.8
42.66	863.0	810.9
42.67	876.0	810.9
42.68	839.0	811.0
42.69	843.0	811.0
42.7	860.0	811.1
42.71	845.0	811.1
42.72	837.0	811.1
42.73	863.0	811.2
42.74	867.0	811.2
42.75	891.0	811.3
42.76	874.0	811.3
42.77	875.0	811.4
42.78	823.0	811.4
42.79	829.0	811.5
42.8	849.0	811.5
42.81	870.0	811.6
42.82	868.0	811.6
42.83	871.0	811.7
42.84	825.0	811.7
42.85	811.0	811.8
42.86	839.0	811.9
42.87	869.0	811.9
42.88	864.0	812.0
42.89	843.0	812.0
42.9	805.0	812.1
42.91	824.0	812.1
42.92	865.0	812.2
42.93	858.0	812.2
42.94	879.0	812.3
42.95	874.0	812.4
42.96	842.0	812.4
42.97	813.0	812.5
42.98	782.0	812.5
42.99	829.0	812.6
43.0	832.0	812.7
43.01	819.0	812.7
43.02	849.0	812.8
43.03	858.0	812.8
43.04	815.0	812.9
43.05	864.0	813.0
43.06	897.0	813.0
43.07	856.0	813.1
43.08	846.0	813.1
43.09	831.0	813.2
43.1	813.0	813.3
43.11	832.0	813.3
43.12	887.0	813.4
43.13	889.0	813.5
43.14	844.0	813.5
43.15	800.0	813.6
43.16	827.0	813.7
43.17	842.0	813.7
43.18	847.0	813.8
43.19	855.0	813.9
43.2	843.0	813.9
43.21	825.0	814.0
43.22	836.0	814.1
43.23	861.0	814.2
43.24	851.0	814.2
43.25	845.0	814.3
43.26	840.0	814.4
43.27	850.0	814.4
43.28	832.0	814.5
43.29	833.0	814.6
43.3	842.0	814.7
43.31	847.0	814.7
43.32	833.0	814.8
43.33	807.0	814.9
43.34	819.0	814.9
43.35	896.0	815.0
43.36	880.0	815.1
43.37	884.0	815.2
43.38	872.0	815.3
43.39	829.0	815.3
43.4	805.0	815.4
43.41	821.0	815.5
43.42	837.0	815.6
43.43	848.0	815.6
43.44	855.0	815.7
43.45	856.0	815.8
43.46	884.0	815.9
43.47	884.0	816.0
43.48	902.0	816.0
43.49	877.0	816.1
43.5	825.0	816.2
43.51	864.0	816.3
43.52	897.0	816.4
43.53	896.0	816.4
43.54	875.0	816.5
43.55	878.0	816.6
43.56	860.0	816.7
43.57	866.0	816.8
43.58	849.0	816.9
43.59	868.0	816.9
43.6	904.0	817.0
43.61	905.0	817.1
43.62	907.0	817.2
43.63	903.0	817.3
43.64	883.0	817.4
43.65	886.0	817.5
43.66	913.0	817.5
43.67	893.0	817.6
43.68	876.0	817.7
43.69	871.0	817.8
43.7	887.0	817.9
43.71	921.0	818.0
43.72	898.0	818.1
43.73	894.0	818.2
43.74	881.0	818.2
43.75	879.0	818.3
43.76	878.0	818.4
43.77	903.0	818.5
43.78	910.0	818.6
43.79	927.0	818.7
43.8	916.0	818.8
43.81	917.0	818.9
43.82	867.0	819.0
43.83	867.0	819.1
43.84	886.0	819.2
43.85	892.0	819.3
43.86	907.0	819.3
43.87	909.0	819.4
43.88	889.0	819.5
43.89	872.0	819.6
43.9	862.0	819.7
43.91	906.0	819.8
43.92	891.0	819.9
43.93	870.0	820.0
43.94	862.0	820.1
43.95	857.0	820.2
43.96	878.0	820.3
43.97	895.0	820.4
43.98	866.0	820.5
43.99	860.0	820.6
44.0	896.0	820.7
44.01	920.0	820.8
44.02	936.0	820.9
44.03	911.0	821.0
44.04	892.0	821.1
44.05	876.0	821.2
44.06	891.0	821.3
44.07	902.0	821.4
44.08	890.0	821.5
44.09	876.0	821.6
44.1	878.0	821.7
44.11	888.0	821.8
44.12	867.0	821.9
44.13	890.0	822.0
44.14	924.0	822.1
44.15	912.0	822.2
44.16	906.0	822.3
44.17	878.0	822.4
44.18	905.0	822.5
44.19	911.0	822.6
44.2	920.0	822.7
44.21	882.0	822.8
44.22	884.0	822.9
44.23	920.0	823.0
44.24	904.0	823.1
44.25	896.0	823.2
44.26	891.0	823.3
44.27	912.0	823.4
44.28	895.0	823.5
44.29	891.0	823.6
44.3	912.0	823.7
44.31	893.0	823.8
44.32	878.0	824.0
44.33	894.0	824.1
44.34	886.0	824.2
44.35	885.0	824.3
44.36	891.0	824.4
44.37	880.0	824.5
44.38	864.0	824.6
44.39	877.0	824.7
44.4	899.0	824.8
44.41	892.0	824.9
44.42	909.0	825.0
44.43	907.0	825.1
44.44	914.0	825.2
44.45	900.0	825.4
44.46	916.0	825.5
44.47	955.0	825.6
44.48	922.0	825.7
44.49	911.0	825.8
44.5	912.0	825.9
44.51	920.0	826.0
44.52	938.0	826.1
44.53	936.0	826.2
44.54	930.0	826.3
44.55	931.0	826.5
44.56	903.0	826.6
44.57	901.0	826.7
44.58	924.0	826.8
44.59	923.0	826.9
44.6	917.0	827.0
44.61	912.0	827.1
44.62	928.0	827.2
44.63	951.0	827.4
44.64	928.0	827.5
44.65	932.0	827.6
44.66	957.0	827.7
44.67	931.0	827.8
44.68	954.0	827.9
44.69	939.0	828.0
44.7	975.0	828.1
44.71	992.0	828.3
44.72	980.0	828.4
44.73	983.0	828.5
44.74	1003.0	828.6
44.75	991.0	828.7
44.76	1009.0	828.8
44.77	1032.0	828.9
44.78	1008.0	829.1
44.79	1017.0	829.2
44.8	1018.0	829.3
44.81	1015.0	829.4
44.82	991.0	829.5
44.83	1002.0	829.6
44.84	954.0	829.8
44.85	957.0	829.9
44.86	1005.0	830.0
44.87	1002.0	830.1
44.88	1000.0	830.2
44.89	1029.0	830.3
44.9	994.0	830.5
44.91	971.0	830.6
44.92	918.0	830.7
44.93	946.0	830.8
44.94	969.0	830.9
44.95	970.0	831.0
44.96	946.0	831.2
44.97	946.0	831.3
44.98	965.0	831.4
44.99	975.0	831.5
45.0	957.0	831.6
45.01	955.0	831.8
45.02	988.0	831.9
45.03	974.0	832.0
45.04	971.0	832.1
45.05	950.0	832.2
45.06	963.0	832.3
45.07	904.0	832.5
45.08	905.0	832.6
45.09	919.0	832.7
45.1	950.0	832.8
45.11	962.0	832.9
45.12	958.0	833.1
45.13	938.0	833.2
45.14	951.0	833.3
45.15	949.0	833.4
45.16	928.0	833.5
45.17	921.0	833.7
45.18	919.0	833.8
45.19	951.0	833.9
45.2	969.0	834.0
45.21	927.0	834.1
45.22	930.0	834.3
45.23	975.0	834.4
45.24	971.0	834.5
45.25	968.0	834.6
45.26	977.0	834.7
45.27	966.0	834.9
45.28	964.0	835.0
45.29	977.0	835.1
45.3	967.0	835.2
45.31	991.0	835.4
45.32	996.0	835.5
45.33	1035.0	835.6
45.34	1047.0	835.7
45.35	1052.0	835.8
45.36	1042.0	836.0
45.37	993.0	836.1
45.38	989.0	836.2
45.39	977.0	836.3
45.4	1025.0	836.4
45.41	1065.0	836.6
45.42	1048.0	836.7
45.43	1034.0	836.8
45.44	1017.0	836.9
45.45	1017.0	837.1
45.46	1040.0	837.2
45.47	1072.0	837.3
45.48	1093.0	837.4
45.49	1083.0	837.5
45.5	1097.0	837.7
45.51	1115.0	837.8
45.52	1113.0	837.9
45.53	1154.0	838.0
45.54	1168.0	838.2
45.55	1176.0	838.3
45.56	1214.0	838.4
45.57	1230.0	838.5
45.58	1210.0	838.6
45.59	1246.0	838.8
45.6	1270.0	838.9
45.61	1283.0	839.0
45.62	1342.0	839.1
45.63	1392.0	839.3
45.64	1436.0	839.4
45.65	1467.0	839.5
45.66	1502.0	839.6
45.67	1539.0	839.7
45.68	1592.0	839.9
45.69	1674.0	840.0
45.7	1725.0	840.1
45.71	1837.0	840.2
45.72	1967.0	840.4
45.73	2059.0	840.5
45.74	2156.0	840.6
45.75	2234.0	840.7
45.76	2335.0	840.8
45.77	2489.0	841.0
45.78	2709.0	841.1
45.79	2878.0	841.2
45.8	3064.0	841.3
45.81	3281.0	841.5
45.82	3425.0	841.6
45.83	3607.0	841.7
45.84	3834.0	841.8
45.85	4089.0	841.9
45.86	4364.0	842.1
45.87	4519.0	842.2
45.88	4677.0	842.3
45.89	4896.0	842.4
45.9	5171.0	842.6
45.91	5250.0	842.7
45.92	5230.0	842.8
45.93	5295.0	842.9
45.94	5346.0	843.0
45.95	5330.0	843.2
45.96	5302.0	843.3
45.97	5279.0	843.4
45.98	5151.0	843.5
45.99	5005.0	843.7
46.0	4916.0	843.8
46.01	4819.0	843.9
46.02	4625.0	844.0
46.03	4442.0	844.1
46.04	4265.0	844.3
46.05	4100.0	844.4
46.06	3940.0	844.5
46.07	3815.0	844.6
46.08	3626.0	844.8
46.09	3383.0	844.9
46.1	3175.0	845.0
46.11	3021.0	845.1
46.12	2826.0	845.2
46.13	2684.0	845.4
46.14	2542.0	845.5
46.15	2398.0	845.6
46.16	2240.0	845.7
46.17	2117.0	845.8
46.18	2032.0	846.0
46.19	1945.0	846.1
46.2	1834.0	846.2
46.21	1764.0	846.3
46.22	1648.0	846.4
46.23	1605.0	846.6
46.24	1591.0	846.7
46.25	1539.0	846.8
46.26	1456.0	846.9
46.27	1387.0	847.0
46.28	1360.0	847.2
46.29	1336.0	847.3
46.3	1280.0	847.4
46.31	1241.0	847.5
46.32	1225.0	847.6
46.33	1193.0	847.8
46.34	1196.0	847.9
46.35	1216.0	848.0
46.36	1172.0	848.1
46.37	1107.0	848.2
46.38	1098.0	848.4
46.39	1099.0	848.5
46.4	1105.0	848.6
46.41	1078.0	848.7
46.42	1065.0	848.8
46.43	1049.0	848.9
46.44	1039.0	849.1
46.45	1032.0	849.2
46.46	1020.0	849.3
46.47	998.0	849.4
46.48	996.0	849.5
46.49	997.0	849.7
46.5	992.0	849.8
46.51	1006.0	849.9
46.52	1005.0	850.0
46.53	1002.0	850.1
46.54	967.0	850.2
46.55	952.0	850.4
46.56	954.0	850.5
46.57	964.0	850.6
46.58	996.0	850.7
46.59	969.0	850.8
46.6	914.0	850.9
46.61	926.0	851.0
46.62	940.0	851.2
46.63	942.0	851.3
46.64	972.0	851.4
46.65	970.0	851.5
46.66	920.0	851.6
46.67	907.0	851.7
46.68	901.0	851.9
46.69	916.0	852.0
46.7	940.0	852.1
46.71	950.0	852.2
46.72	944.0	852.3
46.73	942.0	852.4
46.74	944.0	852.5
46.75	914.0	852.6
46.76	918.0	852.8
46.77	933.0	852.9
46.78	947.0	853.0
46.79	944.0	853.1
46.8	932.0	853.2
46.81	897.0	853.3
46.82	934.0	853.4
46.83	936.0	853.5
46.84	923.0	853.7
46.85	899.0	853.8
46.86	920.0	853.9
46.87	916.0	854.0
46.88	895.0	854.1
46.89	917.0	854.2
46.9	962.0	854.3
46.91	937.0	854.4
46.92	913.0	854.5
46.93	927.0	854.7
46.94	903.0	854.8
46.95	870.0	854.9
46.96	883.0	855.0
46.97	910.0	855.1
46.98	917.0	855.2
46.99	889.0	855.3
47.0	888.0	855.4
47.01	887.0	855.5
47.02	906.0	855.6
47.03	932.0	855.7
47.04	917.0	855.8
47.05	906.0	856.0
47.06	907.0	856.1
47.07	906.0	856.2
47.08	902.0	856.3
47.09	918.0	856.4
47.1	927.0	856.5
47.11	918.0	856.6
47.12	926.0	856.7
47.13	921.0	856.8
47.14	902.0	856.9
47.15	869.0	857.0
47.16	871.0	857.1
47.17	893.0	857.2
47.18	885.0	857.3
47.19	890.0	857.4
47.2	904.0	857.5
47.21	906.0	857.6
47.22	907.0	857.7
47.23	900.0	857.8
47.24	894.0	857.9
47.25	894.0	858.0
47.26	893.0	858.1
47.27	891.0	858.2
47.28	884.0	858.3
47.29	884.0	858.4
47.3	892.0	858.5
47.31	910.0	858.6
47.32	918.0	858.7
47.33	926.0	858.8
47.34	908.0	858.9
47.35	890.0	859.0
47.36	887.0	859.1
47.37	879.0	859.2
47.38	889.0	859.3
47.39	908.0	859.4
47.4	916.0	859.5
47.41	879.0	859.6
47.42	870.0	859.7
47.43	872.0	859.8
47.44	891.0	859.9
47.45	932.0	860.0
47.46	893.0	860.1
47.47	858.0	860.2
47.48	858.0	860.3
47.49	868.0	860.4
47.5	904.0	860.5
47.51	921.0	860.6
47.52	923.0	860.7
47.53	896.0	860.8
47.54	881.0	860.9
47.55	886.0	861.0
47.56	891.0	861.1
47.57	900.0	861.2
47.58	915.0	861.3
47.59	914.0	861.3
47.6	901.0	861.4
47.61	887.0	861.5
47.62	894.0	861.6
47.63	900.0	861.7
47.64	888.0	861.8
47.65	859.0	861.9
47.66	862.0	862.0
47.67	890.0	862.1
47.68	905.0	862.2
47.69	894.0	862.2
47.7	904.0	862.3
47.71	913.0	862.4
47.72	913.0	862.5
47.73	913.0	862.6
47.74	916.0	862.7
47.75	889.0	862.8
47.76	874.0	862.9
47.77	889.0	862.9
47.78	890.0	863.0
47.79	880.0	863.1
47.8	907.0	863.2
47.81	918.0	863.3
47.82	901.0	863.4
47.83	907.0	863.5
47.84	911.0	863.5
47.85	903.0	863.6
47.86	902.0	863.7
47.87	906.0	863.8
47.88	895.0	863.9
47.89	886.0	863.9
47.9	880.0	864.0
47.91	891.0	864.1
47.92	897.0	864.2
47.93	900.0	864.3
47.94	905.0	864.4
47.95	913.0	864.4
47.96	909.0	864.5
47.97	904.0	864.6
47.98	913.0	864.7
47.99	901.0	864.7
48.0	889.0	864.8
48.01	892.0	864.9
48.02	887.0	865.0
48.03	862.0	865.1
48.04	867.0	865.1
48.05	892.0	865.2
48.06	888.0	865.3
48.07	875.0	865.4
48.08	887.0	865.4
48.09	879.0	865.5
48.1	891.0	865.6
48.11	926.0	865.6
48.12	929.0	865.7
48.13	916.0	865.8
48.14	906.0	865.9
48.15	900.0	865.9
48.16	903.0	866.0
48.17	905.0	866.1
48.18	885.0	866.1
48.19	874.0	866.2
48.2	896.0	866.3
48.21	899.0	866.4
48.22	917.0	866.4
48.23	910.0	866.5
48.24	904.0	866.6
48.25	908.0	866.6
48.26	878.0	866.7
48.27	878.0	866.8
48.28	904.0	866.8
48.29	905.0	866.9
48.3	895.0	867.0
48.31	882.0	867.0
48.32	891.0	867.1
48.33	887.0	867.1
48.34	895.0	867.2
48.35	916.0	867.3
48.36	900.0	867.3
48.37	872.0	867.4
48.38	870.0	867.5
48.39	897.0	867.5
48.4	917.0	867.6
48.41	887.0	867.6
48.42	893.0	867.7
48.43	910.0	867.8
48.44	898.0	867.8
48.45	871.0	867.9
48.46	849.0	867.9
48.47	863.0	868.0
48.48	894.0	868.0
48.49	896.0	868.1
48.5	892.0	868.2
48.51	896.0	868.2
48.52	916.0	868.3
48.53	922.0	868.3
48.54	920.0	868.4
48.55	936.0	868.4
48.56	927.0	868.5
48.57	895.0	868.5
48.58	892.0	868.6
48.59	910.0	868.6
48.6	897.0	868.7
48.61	872.0	868.7
48.62	886.0	868.8
48.63	916.0	868.8
48.64	907.0	868.9
48.65	896.0	868.9
48.66	907.0	869.0
48.67	913.0	869.0
48.68	897.0	869.1
48.69	886.0	869.1
48.7	897.0	869.2
48.71	903.0	869.2
48.72	882.0	869.3
48.73	870.0	869.3
48.74	872.0	869.4
48.75	870.0	869.4
48.76	870.0	869.4
48.77	876.0	869.5
48.78	883.0	869.5
48.79	896.0	869.6
48.8	915.0	869.6
48.81	917.0	869.7
48.82	884.0	869.7
48.83	868.0	869.7
48.84	884.0	869.8
48.85	908.0	869.8
48.86	918.0	869.9
48.87	910.0	869.9
48.88	890.0	869.9
48.89	873.0	870.0
48.9	890.0	870.0
48.91	922.0	870.1
48.92	942.0	870.1
48.93	921.0	870.1
48.94	890.0	870.2
48.95	880.0	870.2
48.96	900.0	870.2
48.97	906.0	870.3
48.98	904.0	870.3
48.99	901.0	870.4
49.0	895.0	870.4
49.01	908.0	870.4
49.02	903.0	870.5
49.03	867.0	870.5
49.04	875.0	870.5
49.05	888.0	870.6
49.06	876.0	870.6
49.07	870.0	870.6
49.08	873.0	870.7
49.09	870.0	870.7
49.1	883.0	870.7
49.11	896.0	870.8
49.12	908.0	870.8
49.13	890.0	870.8
49.14	886.0	870.8
49.15	906.0	870.9
49.16	929.0	870.9
49.17	914.0	870.9
49.18	913.0	871.0
49.19	919.0	871.0
49.2	888.0	871.0
49.21	876.0	871.0
49.22	901.0	871.1
49.23	901.0	871.1
49.24	876.0	871.1
49.25	873.0	871.2
49.26	891.0	871.2
49.27	897.0	871.2
49.28	884.0	871.2
49.29	901.0	871.3
49.3	907.0	871.3
49.31	909.0	871.3
49.32	902.0	871.3
49.33	871.0	871.4
49.34	886.0	871.4
49.35	917.0	871.4
49.36	920.0	871.4
49.37	923.0	871.5
49.38	911.0	871.5
49.39	906.0	871.5
49.4	915.0	871.5
49.41	902.0	871.5
49.42	902.0	871.6
49.43	914.0	871.6
49.44	915.0	871.6
49.45	921.0	871.6
49.46	921.0	871.6
49.47	924.0	871.7
49.48	941.0	871.7
49.49	931.0	871.7
49.5	902.0	871.7
49.51	892.0	871.7
49.52	905.0	871.8
49.53	899.0	871.8
49.54	897.0	871.8
49.55	923.0	871.8
49.56	918.0	871.8
49.57	913.0	871.9
49.58	933.0	871.9
49.59	904.0	871.9
49.6	883.0	871.9
49.61	910.0	871.9
49.62	934.0	871.9
49.63	921.0	872.0
49.64	902.0	872.0
49.65	896.0	872.0
49.66	914.0	872.0
49.67	922.0	872.0
49.68	915.0	872.0
49.69	920.0	872.1
49.7	928.0	872.1
49.71	914.0	872.1
49.72	906.0	872.1
49.73	905.0	872.1
49.74	926.0	872.1
49.75	951.0	872.1
49.76	962.0	872.2
49.77	963.0	872.2
49.78	953.0	872.2
49.79	950.0	872.2
49.8	952.0	872.2
49.81	962.0	872.2
49.82	983.0	872.2
49.83	976.0	872.2
49.84	981.0	872.3
49.85	984.0	872.3
49.86	964.0	872.3
49.87	985.0	872.3
49.88	1029.0	872.3
49.89	1057.0	872.3
49.9	1076.0	872.3
49.91	1101.0	872.3
49.92	1109.0	872.3
49.93	1106.0	872.4
49.94	1113.0	872.4
49.95	1137.0	872.4
49.96	1165.0	872.4
49.97	1196.0	872.4
49.98	1241.0	872.4
49.99	1266.0	872.4
50.0	1282.0	872.4
50.01	1306.0	872.4
50.02	1298.0	872.4
50.03	1275.0	872.5
50.04	1270.0	872.5
50.05	1295.0	872.5
50.06	1331.0	872.5
50.07	1330.0	872.5
50.08	1339.0	872.5
50.09	1387.0	872.5
50.1	1382.0	872.5
50.11	1322.0	872.5
50.12	1288.0	872.5
50.13	1258.0	872.5
50.14	1255.0	872.5
50.15	1270.0	872.6
50.16	1261.0	872.6
50.17	1252.0	872.6
50.18	1223.0	872.6
50.19	1196.0	872.6
50.2	1186.0	872.6
50.21	1185.0	872.6
50.22	1170.0	872.6
50.23	1124.0	872.6
50.24	1095.0	872.6
50.25	1085.0	872.6
50.26	1068.0	872.6
50.27	1060.0	872.6
50.28	1061.0	872.6
50.29	1069.0	872.6
50.3	1061.0	872.7
50.31	1018.0	872.7
50.32	985.0	872.7
50.33	975.0	872.7
50.34	954.0	872.7
50.35	936.0	872.7
50.36	935.0	872.7
50.37	934.0	872.7
50.38	927.0	872.7
50.39	946.0	872.7
50.4	965.0	872.7
50.41	950.0	872.7
50.42	940.0	872.7
50.43	934.0	872.7
50.44	937.0	872.7
50.45	943.0	872.7
50.46	948.0	872.7
50.47	962.0	872.7
50.48	958.0	872.7
50.49	956.0	872.8
50.5	944.0	872.8
50.51	933.0	872.8
50.52	956.0	872.8
50.53	957.0	872.8
50.54	913.0	872.8
50.55	894.0	872.8
50.56	927.0	872.8
50.57	958.0	872.8
50.58	959.0	872.8
50.59	939.0	872.8
50.6	922.0	872.8
50.61	916.0	872.8
50.62	908.0	872.8
50.63	906.0	872.8
50.64	907.0	872.8
50.65	895.0	872.8
50.66	883.0	872.8
50.67	894.0	872.8
50.68	914.0	872.8
50.69	900.0	872.8
50.7	891.0	872.8
50.71	897.0	872.8
50.72	893.0	872.9
50.73	909.0	872.9
50.74	903.0	872.9
50.75	900.0	872.9
50.76	926.0	872.9
50.77	928.0	872.9
50.78	904.0	872.9
50.79	901.0	872.9
50.8	907.0	872.9
50.81	915.0	872.9
50.82	928.0	872.9
50.83	922.0	872.9
50.84	936.0	872.9
50.85	924.0	872.9
50.86	897.0	872.9
50.87	907.0	872.9
50.88	912.0	872.9
50.89	917.0	872.9
50.9	918.0	872.9
50.91	905.0	872.9
50.92	919.0	872.9
50.93	935.0	872.9
50.94	921.0	872.9
50.95	907.0	873.0
50.96	910.0	873.0
50.97	928.0	873.0
50.98	934.0	873.0
50.99	908.0	873.0
51.0	886.0	873.0
51.01	905.0	873.0
51.02	906.0	873.0
51.03	885.0	873.0
51.04	903.0	873.0
51.05	920.0	873.0
51.06	901.0	873.0
51.07	896.0	873.0
51.08	906.0	873.0
51.09	909.0	873.0
51.1	919.0	873.0
51.11	934.0	873.0
51.12	939.0	873.0
51.13	910.0	873.0
51.14	890.0	873.1
51.15	901.0	873.1
51.16	902.0	873.1
51.17	893.0	873.1
51.18	890.0	873.1
51.19	886.0	873.1
51.2	876.0	873.1
51.21	886.0	873.1
51.22	919.0	873.1
51.23	942.0	873.1
51.24	912.0	873.1
51.25	886.0	873.1
51.26	905.0	873.1
51.27	930.0	873.1
51.28	921.0	873.1
51.29	886.0	873.2
51.3	892.0	873.2
51.31	899.0	873.2
51.32	895.0	873.2
51.33	894.0	873.2
51.34	898.0	873.2
51.35	918.0	873.2
51.36	940.0	873.2
51.37	935.0	873.2
51.38	911.0	873.2
51.39	917.0	873.2
51.4	945.0	873.2
51.41	927.0	873.3
51.42	892.0	873.3
51.43	890.0	873.3
51.44	910.0	873.3
51.45	935.0	873.3
51.46	940.0	873.3
51.47	952.0	873.3
51.48	968.0	873.3
51.49	946.0	873.3
51.5	894.0	873.3
51.51	863.0	873.4
51.52	882.0	873.4
51.53	909.0	873.4
51.54	924.0	873.4
51.55	921.0	873.4
51.56	893.0	873.4
51.57	876.0	873.4
51.58	890.0	873.4
51.59	897.0	873.5
51.6	907.0	873.5
51.61	888.0	873.5
51.62	884.0	873.5
51.63	912.0	873.5
51.64	905.0	873.5
51.65	894.0	873.5
51.66	915.0	873.5
51.67	906.0	873.6
51.68	890.0	873.6
51.69	915.0	873.6
51.7	913.0	873.6
51.71	887.0	873.6
51.72	878.0	873.6
51.73	888.0	873.6
51.74	883.0	873.7
51.75	884.0	873.7
51.76	900.0	873.7
51.77	911.0	873.7
51.78	917.0	873.7
51.79	912.0	873.7
51.8	889.0	873.8
51.81	880.0	873.8
51.82	909.0	873.8
51.83	933.0	873.8
51.84	911.0	873.8
51.85	908.0	873.8
51.86	908.0	873.9
51.87	878.0	873.9
51.88	878.0	873.9
51.89	908.0	873.9
51.9	905.0	873.9
51.91	873.0	874.0
51.92	873.0	874.0
51.93	894.0	874.0
51.94	920.0	874.0
51.95	933.0	874.0
51.96	922.0	874.0
51.97	906.0	874.1
51.98	915.0	874.1
51.99	922.0	874.1
52.0	921.0	874.1
52.01	905.0	874.2
52.02	880.0	874.2
52.03	877.0	874.2
52.04	889.0	874.2
52.05	901.0	874.2
52.06	899.0	874.3
52.07	908.0	874.3
52.08	937.0	874.3
52.09	939.0	874.3
52.1	924.0	874.4
52.11	914.0	874.4
52.12	902.0	874.4
52.13	912.0	874.4
52.14	927.0	874.5
52.15	907.0	874.5
52.16	895.0	874.5
52.17	892.0	874.5
52.18	863.0	874.6
52.19	849.0	874.6
52.2	874.0	874.6
52.21	912.0	874.7
52.22	921.0	874.7
52.23	913.0	874.7
52.24	920.0	874.7
52.25	909.0	874.8
52.26	879.0	874.8
52.27	894.0	874.8
52.28	924.0	874.9
52.29	919.0	874.9
52.3	912.0	874.9
52.31	884.0	874.9
52.32	877.0	875.0
52.33	920.0	875.0
52.34	943.0	875.0
52.35	938.0	875.1
52.36	911.0	875.1
52.37	887.0	875.1
52.38	883.0	875.2
52.39	871.0	875.2
52.4	878.0	875.2
52.41	891.0	875.3
52.42	905.0	875.3
52.43	909.0	875.3
52.44	899.0	875.4
52.45	897.0	875.4
52.46	907.0	875.4
52.47	927.0	875.5
52.48	924.0	875.5
52.49	902.0	875.6
52.5	885.0	875.6
52.51	877.0	875.6
52.52	898.0	875.7
52.53	910.0	875.7
52.54	916.0	875.8
52.55	928.0	875.8
52.56	917.0	875.8
52.57	904.0	875.9
52.58	925.0	875.9
52.59	931.0	876.0
52.6	929.0	876.0
52.61	905.0	876.0
52.62	884.0	876.1
52.63	897.0	876.1
52.64	922.0	876.2
52.65	926.0	876.2
52.66	903.0	876.3
52.67	900.0	876.3
52.68	901.0	876.3
52.69	885.0	876.4
52.7	890.0	876.4
52.71	901.0	876.5
52.72	906.0	876.5
52.73	904.0	876.6
52.74	919.0	876.6
52.75	936.0	876.7
52.76	915.0	876.7
52.77	881.0	876.8
52.78	879.0	876.8
52.79	890.0	876.9
52.8	884.0	876.9
52.81	886.0	877.0
52.82	914.0	877.0
52.83	931.0	877.1
52.84	926.0	877.1
52.85	922.0	877.2
52.86	925.0	877.2
52.87	933.0	877.3
52.88	935.0	877.3
52.89	947.0	877.4
52.9	925.0	877.4
52.91	895.0	877.5
52.92	904.0	877.5
52.93	907.0	877.6
52.94	920.0	877.7
52.95	933.0	877.7
52.96	917.0	877.8
52.97	913.0	877.8
52.98	897.0	877.9
52.99	910.0	877.9
53.0	921.0	878.0
53.01	907.0	878.1
53.02	902.0	878.1
53.03	902.0	878.2
53.04	902.0	878.2
53.05	903.0	878.3
53.06	910.0	878.4
53.07	906.0	878.4
53.08	891.0	878.5
53.09	873.0	878.6
53.1	897.0	878.6
53.11	926.0	878.7
53.12	915.0	878.7
53.13	895.0	878.8
53.14	882.0	878.9
53.15	888.0	878.9
53.16	908.0	879.0
53.17	927.0	879.1
53.18	918.0	879.1
53.19	906.0	879.2
53.2	910.0	879.3
53.21	897.0	879.4
53.22	898.0	879.4
53.23	907.0	879.5
53.24	920.0	879.6
53.25	903.0	879.6
53.26	904.0	879.7
53.27	913.0	879.8
53.28	884.0	879.9
53.29	863.0	879.9
53.3	880.0	880.0
53.31	895.0	880.1
53.32	923.0	880.2
53.33	927.0	880.2
53.34	897.0	880.3
53.35	914.0	880.4
53.36	917.0	880.5
53.37	906.0	880.5
53.38	902.0	880.6
53.39	918.0	880.7
53.4	911.0	880.8
53.41	891.0	880.9
53.42	906.0	880.9
53.43	926.0	881.0
53.44	925.0	881.1
53.45	932.0	881.2
53.46	949.0	881.3
53.47	936.0	881.4
53.48	899.0	881.4
53.49	887.0	881.5
53.5	885.0	881.6
53.51	894.0	881.7
53.52	918.0	881.8
53.53	918.0	881.9
53.54	907.0	881.9
53.55	916.0	882.0
53.56	928.0	882.1
53.57	926.0	882.2
53.58	930.0	882.3
53.59	894.0	882.4
53.6	877.0	882.5
53.61	902.0	882.6
53.62	929.0	882.7
53.63	934.0	882.8
53.64	923.0	882.8
53.65	914.0	882.9
53.66	935.0	883.0
53.67	927.0	883.1
53.68	891.0	883.2
53.69	902.0	883.3
53.7	924.0	883.4
53.71	941.0	883.5
53.72	932.0	883.6
53.73	912.0	883.7
53.74	902.0	883.8
53.75	901.0	883.9
53.76	918.0	884.0
53.77	920.0	884.1
53.78	922.0	884.2
53.79	947.0	884.3
53.8	943.0	884.4
53.81	933.0	884.5
53.82	915.0	884.6
53.83	930.0	884.7
53.84	946.0	884.8
53.85	929.0	884.9
53.86	907.0	885.0
53.87	925.0	885.1
53.88	926.0	885.2
53.89	909.0	885.3
53.9	922.0	885.4
53.91	956.0	885.5
53.92	973.0	885.6
53.93	959.0	885.7
53.94	930.0	885.8
53.95	904.0	885.9
53.96	884.0	886.0
53.97	886.0	886.2
53.98	910.0	886.3
53.99	921.0	886.4
54.0	892.0	886.5
54.01	903.0	886.6
54.02	917.0	886.7
54.03	906.0	886.8
54.04	901.0	886.9
54.05	883.0	887.0
54.06	900.0	887.1
54.07	916.0	887.3
54.08	940.0	887.4
54.09	966.0	887.5
54.1	969.0	887.6
54.11	947.0	887.7
54.12	936.0	887.8
54.13	932.0	887.9
54.14	915.0	888.0
54.15	904.0	888.2
54.16	876.0	888.3
54.17	878.0	888.4
54.18	946.0	888.5
54.19	958.0	888.6
54.2	921.0	888.7
54.21	914.0	888.9
54.22	916.0	889.0
54.23	923.0	889.1
54.24	912.0	889.2
54.25	890.0	889.3
54.26	893.0	889.5
54.27	914.0	889.6
54.28	925.0	889.7
54.29	930.0	889.8
54.3	914.0	889.9
54.31	924.0	890.1
54.32	936.0	890.2
54.33	943.0	890.3
54.34	949.0	890.4
54.35	931.0	890.6
54.36	906.0	890.7
54.37	918.0	890.8
54.38	954.0	890.9
54.39	950.0	891.1
54.4	922.0	891.2
54.41	929.0	891.3
54.42	922.0	891.4
54.43	919.0	891.6
54.44	938.0	891.7
54.45	924.0	891.8
54.46	913.0	892.0
54.47	916.0	892.1
54.48	918.0	892.2
54.49	920.0	892.3
54.5	935.0	892.5
54.51	984.0	892.6
54.52	979.0	892.7
54.53	942.0	892.9
54.54	939.0	893.0
54.55	935.0	893.1
54.56	919.0	893.3
54.57	921.0	893.4
54.58	935.0	893.5
54.59	943.0	893.7
54.6	961.0	893.8
54.61	955.0	893.9
54.62	931.0	894.1
54.63	927.0	894.2
54.64	925.0	894.3
54.65	931.0	894.5
54.66	964.0	894.6
54.67	990.0	894.7
54.68	979.0	894.9
54.69	962.0	895.0
54.7	951.0	895.1
54.71	963.0	895.3
54.72	974.0	895.4
54.73	963.0	895.6
54.74	958.0	895.7
54.75	943.0	895.8
54.76	903.0	896.0
54.77	883.0	896.1
54.78	898.0	896.2
54.79	920.0	896.4
54.8	948.0	896.5
54.81	954.0	896.7
54.82	941.0	896.8
54.83	950.0	897.0
54.84	975.0	897.1
54.85	975.0	897.2
54.86	942.0	897.4
54.87	934.0	897.5
54.88	945.0	897.7
54.89	952.0	897.8
54.9	937.0	898.0
54.91	943.0	898.1
54.92	951.0	898.2
54.93	954.0	898.4
54.94	944.0	898.5
54.95	936.0	898.7
54.96	916.0	898.8
54.97	883.0	899.0
54.98	911.0	899.1
54.99	946.0	899.3
55.0	945.0	899.4
55.01	945.0	899.6
55.02	941.0	899.7
55.03	947.0	899.9
55.04	956.0	900.0
55.05	951.0	900.1
55.06	937.0	900.3
55.07	954.0	900.4
55.08	960.0	900.6
55.09	940.0	900.7
55.1	935.0	900.9
55.11	921.0	901.0
55.12	924.0	901.2
55.13	918.0	901.3
55.14	912.0	901.5
55.15	919.0	901.7
55.16	925.0	901.8
55.17	928.0	902.0
55.18	938.0	902.1
55.19	943.0	902.3
55.2	951.0	902.4
55.21	945.0	902.6
55.22	940.0	902.7
55.23	943.0	902.9
55.24	949.0	903.0
55.25	954.0	903.2
55.26	952.0	903.3
55.27	925.0	903.5
55.28	938.0	903.6
55.29	945.0	903.8
55.3	937.0	904.0
55.31	923.0	904.1
55.32	945.0	904.3
55.33	947.0	904.4
55.34	937.0	904.6
55.35	973.0	904.7
55.36	983.0	904.9
55.37	953.0	905.1
55.38	937.0	905.2
55.39	948.0	905.4
55.4	959.0	905.5
55.41	960.0	905.7
55.42	942.0	905.9
55.43	934.0	906.0
55.44	948.0	906.2
55.45	961.0	906.3
55.46	945.0	906.5
55.47	914.0	906.7
55.48	907.0	906.8
55.49	913.0	907.0
55.5	917.0	907.1
55.51	930.0	907.3
55.52	963.0	907.5
55.53	971.0	907.6
55.54	948.0	907.8
55.55	960.0	907.9
55.56	945.0	908.1
55.57	923.0	908.3
55.58	922.0	908.4
55.59	939.0	908.6
55.6	950.0	908.8
55.61	946.0	908.9
55.62	951.0	909.1
55.63	955.0	909.3
55.64	958.0	909.4
55.65	956.0	909.6
55.66	956.0	909.7
55.67	947.0	909.9
55.68	972.0	910.1
55.69	965.0	910.2
55.7	943.0	910.4
55.71	948.0	910.6
55.72	958.0	910.7
55.73	958.0	910.9
55.74	925.0	911.1
55.75	926.0	911.2
55.76	923.0	911.4
55.77	928.0	911.6
55.78	930.0	911.7
55.79	922.0	911.9
55.8	940.0	912.1
55.81	947.0	912.2
55.82	949.0	912.4
55.83	951.0	912.6
55.84	960.0	912.7
55.85	977.0	912.9
55.86	971.0	913.1
55.87	959.0	913.3
55.88	972.0	913.4
55.89	957.0	913.6
55.9	943.0	913.8
55.91	937.0	913.9
55.92	951.0	914.1
55.93	967.0	914.3
55.94	967.0	914.4
55.95	947.0	914.6
55.96	939.0	914.8
55.97	917.0	915.0
55.98	937.0	915.1
55.99	957.0	915.3
56.0	955.0	915.5
56.01	939.0	915.6
56.02	942.0	915.8
56.03	952.0	916.0
56.04	938.0	916.2
56.05	960.0	916.3
56.06	965.0	916.5
56.07	930.0	916.7
56.08	942.0	916.9
56.09	930.0	917.0
56.1	942.0	917.2
56.11	973.0	917.4
56.12	956.0	917.6
56.13	944.0	917.7
56.14	976.0	917.9
56.15	984.0	918.1
56.16	964.0	918.2
56.17	972.0	918.4
56.18	977.0	918.6
56.19	930.0	918.8
56.2	933.0	918.9
56.21	945.0	919.1
56.22	924.0	919.3
56.23	928.0	919.5
56.24	941.0	919.6
56.25	952.0	919.8
56.26	953.0	920.0
56.27	939.0	920.2
56.28	920.0	920.4
56.29	919.0	920.5
56.3	959.0	920.7
56.31	960.0	920.9
56.32	958.0	921.1
56.33	931.0	921.2
56.34	935.0	921.4
56.35	937.0	921.6
56.36	943.0	921.8
56.37	965.0	921.9
56.38	952.0	922.1
56.39	939.0	922.3
56.4	928.0	922.5
56.41	943.0	922.7
56.42	973.0	922.8
56.43	968.0	923.0
56.44	955.0	923.2
56.45	967.0	923.4
56.46	948.0	923.5
56.47	943.0	923.7
56.48	953.0	923.9
56.49	947.0	924.1
56.5	918.0	924.3
56.51	924.0	924.4
56.52	934.0	924.6
56.53	933.0	924.8
56.54	944.0	925.0
56.55	984.0	925.2
56.56	979.0	925.3
56.57	947.0	925.5
56.58	935.0	925.7
56.59	957.0	925.9
56.6	934.0	926.1
56.61	949.0	926.2
56.62	969.0	926.4
56.63	966.0	926.6
56.64	944.0	926.8
56.65	958.0	927.0
56.66	966.0	927.1
56.67	949.0	927.3
56.68	948.0	927.5
56.69	977.0	927.7
56.7	974.0	927.9
56.71	948.0	928.1
56.72	967.0	928.2
56.73	963.0	928.4
56.74	948.0	928.6
56.75	935.0	928.8
56.76	945.0	929.0
56.77	950.0	929.1
56.78	959.0	929.3
56.79	963.0	929.5
56.8	974.0	929.7
56.81	960.0	929.9
56.82	952.0	930.0
56.83	948.0	930.2
56.84	950.0	930.4
56.85	962.0	930.6
56.86	972.0	930.8
56.87	956.0	931.0
56.88	982.0	931.1
56.89	982.0	931.3
56.9	966.0	931.5
56.91	966.0	931.7
56.92	985.0	931.9
56.93	980.0	932.1
56.94	946.0	932.2
56.95	949.0	932.4
56.96	972.0	932.6
56.97	948.0	932.8
56.98	943.0	933.0
56.99	963.0	933.2
57.0	980.0	933.3
57.01	962.0	933.5
57.02	909.0	933.7
57.03	919.0	933.9
57.04	951.0	934.1
57.05	963.0	934.3
57.06	958.0	934.4
57.07	952.0	934.6
57.08	952.0	934.8
57.09	947.0	935.0
57.1	947.0	935.2
57.11	953.0	935.4
57.12	943.0	935.5
57.13	948.0	935.7
57.14	956.0	935.9
57.15	967.0	936.1
57.16	957.0	936.3
57.17	966.0	936.5
57.18	978.0	936.6
57.19	951.0	936.8
57.2	944.0	937.0
57.21	971.0	937.2
57.22	948.0	937.4
57.23	982.0	937.6
57.24	1009.0	937.7
57.25	983.0	937.9
57.26	978.0	938.1
57.27	993.0	938.3
57.28	1000.0	938.5
57.29	1001.0	938.7
57.3	988.0	938.8
57.31	963.0	939.0
57.32	948.0	939.2
57.33	958.0	939.4
57.34	948.0	939.6
57.35	953.0	939.8
57.36	951.0	939.9
57.37	925.0	940.1
57.38	937.0	940.3
57.39	970.0	940.5
57.4	970.0	940.7
57.41	971.0	940.9
57.42	972.0	941.1
57.43	955.0	941.2
57.44	988.0	941.4
57.45	1008.0	941.6
57.46	984.0	941.8
57.47	963.0	942.0
57.48	975.0	942.2
57.49	995.0	942.3
57.5	985.0	942.5
57.51	988.0	942.7
57.52	999.0	942.9
57.53	1000.0	943.1
57.54	988.0	943.3
57.55	995.0	943.4
57.56	994.0	943.6
57.57	963.0	943.8
57.58	958.0	944.0
57.59	947.0	944.2
57.6	939.0	944.4
57.61	963.0	944.5
57.62	962.0	944.7
57.63	958.0	944.9
57.64	1012.0	945.1
57.65	1009.0	945.3
57.66	990.0	945.5
57.67	986.0	945.6
57.68	979.0	945.8
57.69	981.0	946.0
57.7	976.0	946.2
57.71	957.0	946.4
57.72	951.0	946.6
57.73	975.0	946.7
57.74	1006.0	946.9
57.75	1020.0	947.1
57.76	1020.0	947.3
57.77	1015.0	947.5
57.78	988.0	947.7
57.79	964.0	947.8
57.8	970.0	948.0
57.81	969.0	948.2
57.82	970.0	948.4
57.83	988.0	948.6
57.84	1021.0	948.8
57.85	992.0	948.9
57.86	987.0	949.1
57.87	988.0	949.3
57.88	965.0	949.5
57.89	958.0	949.7
57.9	985.0	949.9
57.91	1008.0	950.0
57.92	987.0	950.2
57.93	996.0	950.4
57.94	1012.0	950.6
57.95	995.0	950.8
57.96	958.0	951.0
57.97	947.0	951.1
57.98	977.0	951.3
57.99	989.0	951.5
58.0	1017.0	951.7
58.01	1028.0	951.9
58.02	1026.0	952.1
58.03	1027.0	952.2
58.04	1013.0	952.4
58.05	1005.0	952.6
58.06	1019.0	952.8
58.07	1003.0	953.0
58.08	1033.0	953.1
58.09	1055.0	953.3
58.1	1044.0	953.5
58.11	1016.0	953.7
58.12	1041.0	953.9
58.13	1049.0	954.1
58.14	1020.0	954.2
58.15	1029.0	954.4
58.16	1054.0	954.6
58.17	1055.0	954.8
58.18	1087.0	955.0
58.19	1084.0	955.1
58.2	1097.0	955.3
58.21	1098.0	955.5
58.22	1097.0	955.7
58.23	1104.0	955.9
58.24	1130.0	956.1
58.25	1139.0	956.2
58.26	1119.0	956.4
58.27	1087.0	956.6
58.28	1095.0	956.8
58.29	1126.0	957.0
58.3	1136.0	957.1
58.31	1112.0	957.3
58.32	1083.0	957.5
58.33	1074.0	957.7
58.34	1086.0	957.9
58.35	1094.0	958.0
58.36	1095.0	958.2
58.37	1097.0	958.4
58.38	1100.0	958.6
58.39	1084.0	958.8
58.4	1074.0	958.9
58.41	1102.0	959.1
58.42	1086.0	959.3
58.43	1091.0	959.5
58.44	1114.0	959.7
58.45	1102.0	959.9
58.46	1053.0	960.0
58.47	1069.0	960.2
58.48	1110.0	960.4
58.49	1133.0	960.6
58.5	1120.0	960.8
58.51	1095.0	960.9
58.52	1081.0	961.1
58.53	1131.0	961.3
58.54	1145.0	961.5
58.55	1121.0	961.7
58.56	1086.0	961.8
58.57	1057.0	962.0
58.58	1075.0	962.2
58.59	1104.0	962.4
58.6	1089.0	962.5
58.61	1073.0	962.7
58.62	1070.0	962.9
58.63	1088.0	963.1
58.64	1088.0	963.3
58.65	1064.0	963.4
58.66	1078.0	963.6
58.67	1084.0	963.8
58.68	1066.0	964.0
58.69	1068.0	964.2
58.7	1099.0	964.3
58.71	1095.0	964.5
58.72	1084.0	964.7
58.73	1070.0	964.9
58.74	1072.0	965.0
58.75	1057.0	965.2
58.76	1074.0	965.4
58.77	1080.0	965.6
58.78	1076.0	965.8
58.79	1069.0	965.9
58.8	1028.0	966.1
58.81	1050.0	966.3
58.82	1055.0	966.5
58.83	1044.0	966.6
58.84	1071.0	966.8
58.85	1091.0	967.0
58.86	1105.0	967.2
58.87	1101.0	967.4
58.88	1070.0	967.5
58.89	1075.0	967.7
58.9	1075.0	967.9
58.91	1052.0	968.1
58.92	1042.0	968.2
58.93	1061.0	968.4
58.94	1061.0	968.6
58.95	1069.0	968.8
58.96	1051.0	968.9
58.97	1034.0	969.1
58.98	1052.0	969.3
58.99	1097.0	969.5
59.0	1079.0	969.7
59.01	1053.0	969.8
59.02	1080.0	970.0
59.03	1092.0	970.2
59.04	1080.0	970.4
59.05	1081.0	970.5
59.06	1091.0	970.7
59.07	1097.0	970.9
59.08	1091.0	971.1
59.09	1053.0	971.2
59.1	1029.0	971.4
59.11	1042.0	971.6
59.12	1061.0	971.8
59.13	1079.0	971.9
59.14	1073.0	972.1
59.15	1066.0	972.3
59.16	1067.0	972.5
59.17	1084.0	972.6
59.18	1099.0	972.8
59.19	1069.0	973.0
59.2	1025.0	973.1
59.21	1023.0	973.3
59.22	1062.0	973.5
59.23	1084.0	973.7
59.24	1095.0	973.8
59.25	1083.0	974.0
59.26	1095.0	974.2
59.27	1096.0	974.4
59.28	1102.0	974.5
59.29	1115.0	974.7
59.3	1104.0	974.9
59.31	1104.0	975.1
59.32	1114.0	975.2
59.33	1086.0	975.4
59.34	1071.0	975.6
59.35	1065.0	975.7
59.36	1071.0	975.9
59.37	1091.0	976.1
59.38	1098.0	976.3
59.39	1093.0	976.4
59.4	1097.0	976.6
59.41	1101.0	976.8
59.42	1095.0	976.9
59.43	1128.0	977.1
59.44	1168.0	977.3
59.45	1172.0	977.5
59.46	1166.0	977.6
59.47	1154.0	977.8
59.48	1159.0	978.0
59.49	1112.0	978.1
59.5	1140.0	978.3
59.51	1199.0	978.5
59.52	1198.0	978.7
59.53	1176.0	978.8
59.54	1119.0	979.0
59.55	1154.0	979.2
59.56	1167.0	979.3
59.57	1179.0	979.5
59.58	1195.0	979.7
59.59	1191.0	979.8
59.6	1144.0	980.0
59.61	1177.0	980.2
59.62	1224.0	980.3
59.63	1198.0	980.5
59.64	1190.0	980.7
59.65	1200.0	980.9
59.66	1171.0	981.0
59.67	1183.0	981.2
59.68	1171.0	981.4
59.69	1167.0	981.5
59.7	1227.0	981.7
59.71	1231.0	981.9
59.72	1219.0	982.0
59.73	1208.0	982.2
59.74	1218.0	982.4
59.75	1210.0	982.5
59.76	1256.0	982.7
59.77	1300.0	982.9
59.78	1293.0	983.0
59.79	1276.0	983.2
59.8	1322.0	983.4
59.81	1302.0	983.5
59.82	1306.0	983.7
59.83	1315.0	983.9
59.84	1321.0	984.0
59.85	1374.0	984.2
59.86	1416.0	984.4
59.87	1438.0	984.5
59.88	1476.0	984.7
59.89	1533.0	984.9
59.9	1509.0	985.0
59.91	1563.0	985.2
59.92	1540.0	985.4
59.93	1568.0	985.5
59.94	1624.0	985.7
59.95	1664.0	985.8
59.96	1697.0	986.0
59.97	1685.0	986.2
59.98	1726.0	986.3
59.99	1699.0	986.5
60.0	1755.0	986.7
60.01	1773.0	986.8
60.02	1783.0	987.0
60.03	1799.0	987.2
60.04	1779.0	987.3
60.05	1757.0	987.5
60.06	1780.0	987.6
60.07	1761.0	987.8
60.08	1690.0	988.0
60.09	1695.0	988.1
60.1	1716.0	988.3
60.11	1684.0	988.5
60.12	1680.0	988.6
60.13	1687.0	988.8
60.14	1662.0	988.9
60.15	1615.0	989.1
60.16	1643.0	989.3
60.17	1619.0	989.4
60.18	1560.0	989.6
60.19	1510.0	989.7
60.2	1484.0	989.9
60.21	1484.0	990.1
60.22	1438.0	990.2
60.23	1409.0	990.4
60.24	1419.0	990.5
60.25	1391.0	990.7
60.26	1347.0	990.9
60.27	1339.0	991.0
60.28	1369.0	991.2
60.29	1321.0	991.3
60.3	1277.0	991.5
60.31	1289.0	991.7
60.32	1255.0	991.8
60.33	1234.0	992.0
60.34	1231.0	992.1
60.35	1221.0	992.3
60.36	1188.0	992.5
60.37	1148.0	992.6
60.38	1154.0	992.8
60.39	1183.0	992.9
60.4	1150.0	993.1
60.41	1099.0	993.2
60.42	1125.0	993.4
60.43	1108.0	993.6
60.44	1111.0	993.7
60.45	1131.0	993.9
60.46	1140.0	994.0
60.47	1118.0	994.2
60.48	1088.0	994.3
60.49	1070.0	994.5
60.5	1052.0	994.6
60.51	1094.0	994.8
60.52	1086.0	995.0
60.53	1025.0	995.1
60.54	1082.0	995.3
60.55	1100.0	995.4
60.56	1089.0	995.6
60.57	1101.0	995.7
60.58	1084.0	995.9
60.59	1081.0	996.0
60.6	1071.0	996.2
60.61	1075.0	996.3
60.62	1076.0	996.5
60.63	1040.0	996.7
60.64	1000.0	996.8
60.65	1025.0	997.0
60.66	1077.0	997.1
60.67	1056.0	997.3
60.68	1031.0	997.4
60.69	1024.0	997.6
60.7	1059.0	997.7
60.71	1095.0	997.9
60.72	1065.0	998.0
60.73	1041.0	998.2
60.74	1006.0	998.3
60.75	1049.0	998.5
60.76	1074.0	998.6
60.77	1067.0	998.8
60.78	1044.0	998.9
60.79	1084.0	999.1
60.8	1052.0	999.2
60.81	1016.0	999.4
60.82	1003.0	999.5
60.83	1016.0	999.7
60.84	1051.0	999.8
60.85	1077.0	1000.0
60.86	1093.0	1000.1
60.87	1064.0	1000.3
60.88	1044.0	1000.4
60.89	1018.0	1000.6
60.9	1030.0	1000.7
60.91	1022.0	1000.9
60.92	1013.0	1001.0
60.93	1006.0	1001.2
60.94	1034.0	1001.3
60.95	1023.0	1001.4
60.96	1023.0	1001.6
60.97	1082.0	1001.7
60.98	1042.0	1001.9
60.99	1021.0	1002.0
61.0	1051.0	1002.2
61.01	1077.0	1002.3
61.02	1046.0	1002.5
61.03	1007.0	1002.6
61.04	988.0	1002.8
61.05	1020.0	1002.9
61.06	1031.0	1003.0
61.07	1025.0	1003.2
61.08	1030.0	1003.3
61.09	1033.0	1003.5
61.1	1027.0	1003.6
61.11	1022.0	1003.8
61.12	1039.0	1003.9
61.13	1074.0	1004.1
61.14	1068.0	1004.2
61.15	1042.0	1004.3
61.16	1040.0	1004.5
61.17	1057.0	1004.6
61.18	1088.0	1004.8
61.19	1051.0	1004.9
61.2	1055.0	1005.1
61.21	1047.0	1005.2
61.22	1046.0	1005.3
61.23	1033.0	1005.5
61.24	1066.0	1005.6
61.25	1055.0	1005.8
61.26	1076.0	1005.9
61.27	1014.0	1006.0
61.28	1015.0	1006.2
61.29	1041.0	1006.3
61.3	1045.0	1006.5
61.31	1021.0	1006.6
61.32	1006.0	1006.7
61.33	1050.0	1006.9
61.34	1065.0	1007.0
61.35	1018.0	1007.1
61.36	1030.0	1007.3
61.37	1047.0	1007.4
61.38	1023.0	1007.6
61.39	1022.0	1007.7
61.4	1016.0	1007.8
61.41	1009.0	1008.0
61.42	1016.0	1008.1
61.43	1042.0	1008.2
61.44	1026.0	1008.4
61.45	1044.0	1008.5
61.46	1079.0	1008.7
61.47	1080.0	1008.8
61.48	1070.0	1008.9
61.49	1059.0	1009.1
61.5	1017.0	1009.2
61.51	1045.0	1009.3
61.52	1048.0	1009.5
61.53	1064.0	1009.6
61.54	1070.0	1009.7
61.55	1063.0	1009.9
61.56	1051.0	1010.0
61.57	1042.0	1010.1
61.58	1064.0	1010.3
61.59	1078.0	1010.4
61.6	1078.0	1010.5
61.61	1038.0	1010.7
61.62	1022.0	1010.8
61.63	1028.0	1010.9
61.64	1027.0	1011.1
61.65	1038.0	1011.2
61.66	1003.0	1011.3
61.67	1000.0	1011.4
61.68	1023.0	1011.6
61.69	1029.0	1011.7
61.7	1052.0	1011.8
61.71	1070.0	1012.0
61.72	1035.0	1012.1
61.73	1032.0	1012.2
61.74	1028.0	1012.4
61.75	1020.0	1012.5
61.76	1017.0	1012.6
61.77	1012.0	1012.7
61.78	1014.0	1012.9
61.79	1012.0	1013.0
61.8	1051.0	1013.1
61.81	1029.0	1013.3
61.82	1029.0	1013.4
61.83	1049.0	1013.5
61.84	1030.0	1013.6
61.85	1075.0	1013.8
61.86	1010.0	1013.9
61.87	1006.0	1014.0
61.88	1015.0	1014.1
61.89	1044.0	1014.3
61.9	1028.0	1014.4
61.91	1018.0	1014.5
61.92	1047.0	1014.6
61.93	1055.0	1014.8
61.94	1035.0	1014.9
61.95	1009.0	1015.0
61.96	985.0	1015.1
61.97	1029.0	1015.3
61.98	1053.0	1015.4
61.99	1059.0	1015.5
62.0	1046.0	1015.6
62.01	1050.0	1015.7
62.02	1025.0	1015.9
62.03	1034.0	1016.0
62.04	1002.0	1016.1
62.05	1001.0	1016.2
62.06	1008.0	1016.4
62.07	1039.0	1016.5
62.08	1048.0	1016.6
62.09	1024.0	1016.7
62.1	1004.0	1016.8
62.11	1021.0	1017.0
62.12	1067.0	1017.1
62.13	1060.0	1017.2
62.14	1036.0	1017.3
62.15	1041.0	1017.4
62.16	1022.0	1017.5
62.17	1012.0	1017.7
62.18	1030.0	1017.8
62.19	1079.0	1017.9
62.2	1042.0	1018.0
62.21	1028.0	1018.1
62.22	1009.0	1018.3
62.23	991.0	1018.4
62.24	1034.0	1018.5
62.25	1031.0	1018.6
62.26	1038.0	1018.7
62.27	1033.0	1018.8
62.28	1034.0	1018.9
62.29	1041.0	1019.1
62.3	1030.0	1019.2
62.31	1025.0	1019.3
62.32	1026.0	1019.4
62.33	1013.0	1019.5
62.34	1058.0	1019.6
62.35	1037.0	1019.7
62.36	1050.0	1019.9
62.37	1062.0	1020.0
62.38	1007.0	1020.1
62.39	996.0	1020.2
62.4	1059.0	1020.3
62.41	1075.0	1020.4
62.42	1029.0	1020.5
62.43	996.0	1020.6
62.44	1033.0	1020.8
62.45	1040.0	1020.9
62.46	1050.0	1021.0
62.47	1044.0	1021.1
62.48	1037.0	1021.2
62.49	1009.0	1021.3
62.5	1028.0	1021.4
62.51	1033.0	1021.5
62.52	1015.0	1021.6
62.53	1000.0	1021.7
62.54	1034.0	1021.9
62.55	1032.0	1022.0
62.56	1032.0	1022.1
62.57	1053.0	1022.2
62.58	1056.0	1022.3
62.59	1049.0	1022.4
62.6	1057.0	1022.5
62.61	1041.0	1022.6
62.62	1047.0	1022.7
62.63	1047.0	1022.8
62.64	1031.0	1022.9
62.65	1055.0	1023.0
62.66	1043.0	1023.1
62.67	1009.0	1023.3
62.68	1009.0	1023.4
62.69	999.0	1023.5
62.7	1025.0	1023.6
62.71	1001.0	1023.7
62.72	1033.0	1023.8
62.73	1033.0	1023.9
62.74	1050.0	1024.0
62.75	1052.0	1024.1
62.76	1044.0	1024.2
62.77	1066.0	1024.3
62.78	1052.0	1024.4
62.79	1030.0	1024.5
62.8	1032.0	1024.6
62.81	1032.0	1024.7
62.82	1022.0	1024.8
62.83	1014.0	1024.9
62.84	1064.0	1025.0
62.85	1069.0	1025.1
62.86	1061.0	1025.2
62.87	1077.0	1025.3
62.88	1030.0	1025.4
62.89	997.0	1025.5
62.9	1004.0	1025.6
62.91	1011.0	1025.7
62.92	1014.0	1025.8
62.93	1035.0	1025.9
62.94	995.0	1026.0
62.95	1004.0	1026.1
62.96	1044.0	1026.2
62.97	1022.0	1026.3
62.98	1009.0	1026.4
62.99	1018.0	1026.5
63.0	1038.0	1026.6
63.01	1023.0	1026.7
63.02	1046.0	1026.8
63.03	1037.0	1026.9
63.04	1016.0	1027.0
63.05	1035.0	1027.1
63.06	1009.0	1027.2
63.07	1026.0	1027.3
63.08	1035.0	1027.4
63.09	1047.0	1027.5
63.1	1014.0	1027.6
63.11	1027.0	1027.7
63.12	1029.0	1027.8
63.13	1004.0	1027.9
63.14	1050.0	1028.0
63.15	1041.0	1028.1
63.16	1043.0	1028.2
63.17	1059.0	1028.3
63.18	1058.0	1028.4
63.19	1015.0	1028.5
63.2	1024.0	1028.5
63.21	1063.0	1028.6
63.22	1068.0	1028.7
63.23	1021.0	1028.8
63.24	1010.0	1028.9
63.25	1047.0	1029.0
63.26	1050.0	1029.1
63.27	1046.0	1029.2
63.28	1090.0	1029.3
63.29	1044.0	1029.4
63.3	1039.0	1029.5
63.31	1030.0	1029.6
63.32	999.0	1029.7
63.33	1023.0	1029.8
63.34	1003.0	1029.8
63.35	1014.0	1029.9
63.36	1041.0	1030.0
63.37	1040.0	1030.1
63.38	1029.0	1030.2
63.39	1051.0	1030.3
63.4	1040.0	1030.4
63.41	1036.0	1030.5
63.42	1029.0	1030.6
63.43	1024.0	1030.7
63.44	1032.0	1030.7
63.45	1014.0	1030.8
63.46	1000.0	1030.9
63.47	1040.0	1031.0
63.48	1056.0	1031.1
63.49	1017.0	1031.2
63.5	1035.0	1031.3
63.51	1031.0	1031.4
63.52	1002.0	1031.5
63.53	1032.0	1031.5
63.54	1005.0	1031.6
63.55	1059.0	1031.7
63.56	1052.0	1031.8
63.57	1049.0	1031.9
63.58	1031.0	1032.0
63.59	1052.0	1032.1
63.6	1025.0	1032.2
63.61	1037.0	1032.2
63.62	1075.0	1032.3
63.63	1061.0	1032.4
63.64	1028.0	1032.5
63.65	1006.0	1032.6
63.66	1014.0	1032.7
63.67	1021.0	1032.7
63.68	1029.0	1032.8
63.69	1038.0	1032.9
63.7	1071.0	1033.0
63.71	1042.0	1033.1
63.72	1046.0	1033.2
63.73	1034.0	1033.3
63.74	1051.0	1033.3
63.75	1032.0	1033.4
63.76	1090.0	1033.5
63.77	1088.0	1033.6
63.78	1054.0	1033.7
63.79	1074.0	1033.8
63.8	1064.0	1033.8
63.81	1038.0	1033.9
63.82	1016.0	1034.0
63.83	1064.0	1034.1
63.84	1064.0	1034.2
63.85	1077.0	1034.2
63.86	1069.0	1034.3
63.87	1053.0	1034.4
63.88	1068.0	1034.5
63.89	1051.0	1034.6
63.9	1048.0	1034.6
63.91	1043.0	1034.7
63.92	1048.0	1034.8
63.93	1063.0	1034.9
63.94	1052.0	1035.0
63.95	1058.0	1035.0
63.96	1046.0	1035.1
63.97	1070.0	1035.2
63.98	1078.0	1035.3
63.99	1085.0	1035.4
64.0	1062.0	1035.4
64.01	1032.0	1035.5
64.02	1039.0	1035.6
64.03	1042.0	1035.7
64.04	1078.0	1035.8
64.05	1092.0	1035.8
64.06	1078.0	1035.9
64.07	1053.0	1036.0
64.08	1064.0	1036.1
64.09	1057.0	1036.1
64.1	1044.0	1036.2
64.11	1059.0	1036.3
64.12	1065.0	1036.4
64.13	1066.0	1036.5
64.14	1054.0	1036.5
64.15	1058.0	1036.6
64.16	1054.0	1036.7
64.17	1045.0	1036.8
64.18	1043.0	1036.8
64.19	1093.0	1036.9
64.2	1087.0	1037.0
64.21	1072.0	1037.1
64.22	1034.0	1037.1
64.23	1039.0	1037.2
64.24	1094.0	1037.3
64.25	1134.0	1037.4
64.26	1089.0	1037.4
64.27	1062.0	1037.5
64.28	1054.0	1037.6
64.29	1072.0	1037.7
64.3	1095.0	1037.7
64.31	1114.0	1037.8
64.32	1060.0	1037.9
64.33	1045.0	1037.9
64.34	1081.0	1038.0
64.35	1072.0	1038.1
64.36	1076.0	1038.2
64.37	1116.0	1038.2
64.38	1109.0	1038.3
64.39	1053.0	1038.4
64.4	1087.0	1038.5
64.41	1079.0	1038.5
64.42	1062.0	1038.6
64.43	1104.0	1038.7
64.44	1090.0	1038.7
64.45	1083.0	1038.8
64.46	1105.0	1038.9
64.47	1138.0	1039.0
64.48	1086.0	1039.0
64.49	1046.0	1039.1
64.5	1089.0	1039.2
64.51	1093.0	1039.2
64.52	1113.0	1039.3
64.53	1094.0	1039.4
64.54	1066.0	1039.4
64.55	1102.0	1039.5
64.56	1093.0	1039.6
64.57	1088.0	1039.7
64.58	1105.0	1039.7
64.59	1088.0	1039.8
64.6	1089.0	1039.9
64.61	1104.0	1039.9
64.62	1101.0	1040.0
64.63	1114.0	1040.1
64.64	1109.0	1040.1
64.65	1086.0	1040.2
64.66	1111.0	1040.3
64.67	1074.0	1040.3
64.68	1063.0	1040.4
64.69	1088.0	1040.5
64.7	1049.0	1040.5
64.71	1069.0	1040.6
64.72	1118.0	1040.7
64.73	1098.0	1040.7
64.74	1067.0	1040.8
64.75	1057.0	1040.9
64.76	1067.0	1040.9
64.77	1076.0	1041.0
64.78	1071.0	1041.1
64.79	1043.0	1041.1
64.8	1022.0	1041.2
64.81	1072.0	1041.3
64.82	1087.0	1041.3
64.83	1096.0	1041.4
64.84	1120.0	1041.5
64.85	1088.0	1041.5
64.86	1064.0	1041.6
64.87	1080.0	1041.7
64.88	1060.0	1041.7
64.89	1043.0	1041.8
64.9	1088.0	1041.9
64.91	1093.0	1041.9
64.92	1090.0	1042.0
64.93	1108.0	1042.0
64.94	1100.0	1042.1
64.95	1110.0	1042.2
64.96	1086.0	1042.2
64.97	1079.0	1042.3
64.98	1067.0	1042.4
64.99	1121.0	1042.4
65.0	1101.0	1042.5
65.01	1116.0	1042.6
65.02	1089.0	1042.6
65.03	1094.0	1042.7
65.04	1089.0	1042.7
65.05	1108.0	1042.8
65.06	1089.0	1042.9
65.07	1078.0	1042.9
65.08	1091.0	1043.0
65.09	1173.0	1043.0
65.1	1149.0	1043.1
65.11	1159.0	1043.2
65.12	1145.0	1043.2
65.13	1129.0	1043.3
65.14	1122.0	1043.4
65.15	1083.0	1043.4
65.16	1075.0	1043.5
65.17	1161.0	1043.5
65.18	1108.0	1043.6
65.19	1140.0	1043.7
65.2	1163.0	1043.7
65.21	1146.0	1043.8
65.22	1163.0	1043.8
65.23	1122.0	1043.9
65.24	1106.0	1044.0
65.25	1129.0	1044.0
65.26	1142.0	1044.1
65.27	1204.0	1044.1
65.28	1158.0	1044.2
65.29	1211.0	1044.3
65.3	1229.0	1044.3
65.31	1235.0	1044.4
65.32	1243.0	1044.4
65.33	1227.0	1044.5
65.34	1234.0	1044.6
65.35	1264.0	1044.6
65.36	1272.0	1044.7
65.37	1243.0	1044.7
65.38	1261.0	1044.8
65.39	1299.0	1044.8
65.4	1297.0	1044.9
65.41	1352.0	1045.0
65.42	1358.0	1045.0
65.43	1371.0	1045.1
65.44	1420.0	1045.1
65.45	1423.0	1045.2
65.46	1432.0	1045.2
65.47	1486.0	1045.3
65.48	1517.0	1045.4
65.49	1504.0	1045.4
65.5	1539.0	1045.5
65.51	1604.0	1045.5
65.52	1587.0	1045.6
65.53	1649.0	1045.6
65.54	1729.0	1045.7
65.55	1747.0	1045.8
65.56	1788.0	1045.8
65.57	1852.0	1045.9
65.58	1943.0	1045.9
65.59	1974.0	1046.0
65.6	2012.0	1046.0
65.61	2106.0	1046.1
65.62	2208.0	1046.1
65.63	2224.0	1046.2
65.64	2247.0	1046.3
65.65	2305.0	1046.3
65.66	2345.0	1046.4
65.67	2366.0	1046.4
65.68	2322.0	1046.5
65.69	2364.0	1046.5
65.7	2408.0	1046.6
65.71	2431.0	1046.6
65.72	2439.0	1046.7
65.73	2425.0	1046.7
65.74	2406.0	1046.8
65.75	2402.0	1046.9
65.76	2372.0	1046.9
65.77	2311.0	1047.0
65.78	2366.0	1047.0
65.79	2362.0	1047.1
65.8	2290.0	1047.1
65.81	2272.0	1047.2
65.82	2230.0	1047.2
65.83	2159.0	1047.3
65.84	2176.0	1047.3
65.85	2155.0	1047.4
65.86	2140.0	1047.4
65.87	2049.0	1047.5
65.88	2005.0	1047.5
65.89	2069.0	1047.6
65.9	2009.0	1047.6
65.91	2019.0	1047.7
65.92	1976.0	1047.8
65.93	1906.0	1047.8
65.94	1829.0	1047.9
65.95	1806.0	1047.9
65.96	1760.0	1048.0
65.97	1701.0	1048.0
65.98	1655.0	1048.1
65.99	1660.0	1048.1
66.0	1636.0	1048.2
66.01	1601.0	1048.2
66.02	1517.0	1048.3
66.03	1528.0	1048.3
66.04	1520.0	1048.4
66.05	1443.0	1048.4
66.06	1427.0	1048.5
66.07	1403.0	1048.5
66.08	1394.0	1048.6
66.09	1366.0	1048.6
66.1	1362.0	1048.7
66.11	1350.0	1048.7
66.12	1325.0	1048.8
66.13	1340.0	1048.8
66.14	1346.0	1048.9
66.15	1323.0	1048.9
66.16	1346.0	1049.0
66.17	1301.0	1049.0
66.18	1296.0	1049.1
66.19	1277.0	1049.1
66.2	1266.0	1049.2
66.21	1264.0	1049.2
66.22	1271.0	1049.3
66.23	1277.0	1049.3
66.24	1306.0	1049.4
66.25	1217.0	1049.4
66.26	1217.0	1049.5
66.27	1224.0	1049.5
66.28	1273.0	1049.6
66.29	1249.0	1049.6
66.3	1283.0	1049.7
66.31	1286.0	1049.7
66.32	1264.0	1049.8
66.33	1235.0	1049.8
66.34	1219.0	1049.9
66.35	1263.0	1049.9
66.36	1262.0	1050.0
66.37	1263.0	1050.0
66.38	1269.0	1050.0
66.39	1273.0	1050.1
66.4	1272.0	1050.1
66.41	1342.0	1050.2
66.42	1329.0	1050.2
66.43	1321.0	1050.3
66.44	1334.0	1050.3
66.45	1416.0	1050.4
66.46	1432.0	1050.4
66.47	1411.0	1050.5
66.48	1401.0	1050.5
66.49	1385.0	1050.6
66.5	1486.0	1050.6
66.51	1488.0	1050.7
66.52	1526.0	1050.7
66.53	1592.0	1050.8
66.54	1586.0	1050.8
66.55	1694.0	1050.8
66.56	1782.0	1050.9
66.57	1796.0	1050.9
66.58	1890.0	1051.0
66.59	1992.0	1051.0
66.6	2029.0	1051.1
66.61	2100.0	1051.1
66.62	2203.0	1051.2
66.63	2258.0	1051.2
66.64	2233.0	1051.3
66.65	2342.0	1051.3
66.66	2374.0	1051.4
66.67	2392.0	1051.4
66.68	2421.0	1051.4
66.69	2468.0	1051.5
66.7	2511.0	1051.5
66.71	2477.0	1051.6
66.72	2462.0	1051.6
66.73	2356.0	1051.7
66.74	2339.0	1051.7
66.75	2362.0	1051.8
66.76	2262.0	1051.8
66.77	2269.0	1051.9
66.78	2262.0	1051.9
66.79	2184.0	1051.9
66.8	2135.0	1052.0
66.81	2168.0	1052.0
66.82	2195.0	1052.1
66.83	2144.0	1052.1
66.84	2094.0	1052.2
66.85	2103.0	1052.2
66.86	2066.0	1052.3
66.87	2037.0	1052.3
66.88	2005.0	1052.3
66.89	1967.0	1052.4
66.9	1881.0	1052.4
66.91	1825.0	1052.5
66.92	1818.0	1052.5
66.93	1760.0	1052.6
66.94	1682.0	1052.6
66.95	1623.0	1052.7
66.96	1607.0	1052.7
66.97	1583.0	1052.7
66.98	1507.0	1052.8
66.99	1526.0	1052.8
67.0	1471.0	1052.9
67.01	1426.0	1052.9
67.02	1408.0	1053.0
67.03	1370.0	1053.0
67.04	1371.0	1053.1
67.05	1372.0	1053.1
67.06	1301.0	1053.1
67.07	1304.0	1053.2
67.08	1265.0	1053.2
67.09	1245.0	1053.3
67.1	1226.0	1053.3
67.11	1225.0	1053.4
67.12	1187.0	1053.4
67.13	1206.0	1053.4
67.14	1204.0	1053.5
67.15	1185.0	1053.5
67.16	1201.0	1053.6
67.17	1192.0	1053.6
67.18	1205.0	1053.7
67.19	1176.0	1053.7
67.2	1163.0	1053.7
67.21	1183.0	1053.8
67.22	1204.0	1053.8
67.23	1189.0	1053.9
67.24	1171.0	1053.9
67.25	1170.0	1054.0
67.26	1160.0	1054.0
67.27	1140.0	1054.0
67.28	1153.0	1054.1
67.29	1135.0	1054.1
67.3	1177.0	1054.2
67.31	1149.0	1054.2
67.32	1160.0	1054.2
67.33	1167.0	1054.3
67.34	1101.0	1054.3
67.35	1131.0	1054.4
67.36	1119.0	1054.4
67.37	1120.0	1054.5
67.38	1133.0	1054.5
67.39	1125.0	1054.5
67.4	1126.0	1054.6
67.41	1116.0	1054.6
67.42	1127.0	1054.7
67.43	1146.0	1054.7
67.44	1145.0	1054.7
67.45	1116.0	1054.8
67.46	1120.0	1054.8
67.47	1092.0	1054.9
67.48	1134.0	1054.9
67.49	1155.0	1055.0
67.5	1133.0	1055.0
67.51	1125.0	1055.0
67.52	1085.0	1055.1
67.53	1117.0	1055.1
67.54	1109.0	1055.2
67.55	1085.0	1055.2
67.56	1072.0	1055.2
67.57	1068.0	1055.3
67.58	1107.0	1055.3
67.59	1134.0	1055.4
67.6	1110.0	1055.4
67.61	1105.0	1055.5
67.62	1136.0	1055.5
67.63	1070.0	1055.5
67.64	1043.0	1055.6
67.65	1066.0	1055.6
67.66	1123.0	1055.7
67.67	1114.0	1055.7
67.68	1092.0	1055.7
67.69	1084.0	1055.8
67.7	1125.0	1055.8
67.71	1123.0	1055.9
67.72	1074.0	1055.9
67.73	1066.0	1055.9
67.74	1075.0	1056.0
67.75	1101.0	1056.0
67.76	1081.0	1056.1
67.77	1083.0	1056.1
67.78	1138.0	1056.1
67.79	1098.0	1056.2
67.8	1078.0	1056.2
67.81	1103.0	1056.3
67.82	1066.0	1056.3
67.83	1106.0	1056.3
67.84	1111.0	1056.4
67.85	1122.0	1056.4
67.86	1105.0	1056.5
67.87	1120.0	1056.5
67.88	1134.0	1056.5
67.89	1100.0	1056.6
67.9	1106.0	1056.6
67.91	1132.0	1056.7
67.92	1143.0	1056.7
67.93	1092.0	1056.7
67.94	1051.0	1056.8
67.95	1057.0	1056.8
67.96	1070.0	1056.9
67.97	1128.0	1056.9
67.98	1131.0	1057.0
67.99	1102.0	1057.0
68.0	1089.0	1057.0
68.01	1061.0	1057.1
68.02	1087.0	1057.1
68.03	1097.0	1057.2
68.04	1077.0	1057.2
68.05	1076.0	1057.2
68.06	1094.0	1057.3
68.07	1134.0	1057.3
68.08	1104.0	1057.4
68.09	1086.0	1057.4
68.1	1081.0	1057.4
68.11	1094.0	1057.5
68.12	1095.0	1057.5
68.13	1085.0	1057.6
68.14	1098.0	1057.6
68.15	1096.0	1057.6
68.16	1055.0	1057.7
68.17	1082.0	1057.7
68.18	1073.0	1057.8
68.19	1077.0	1057.8
68.2	1089.0	1057.8
68.21	1060.0	1057.9
68.22	1095.0	1057.9
68.23	1076.0	1057.9
68.24	1090.0	1058.0
68.25	1086.0	1058.0
68.26	1105.0	1058.1
68.27	1084.0	1058.1
68.28	1091.0	1058.1
68.29	1118.0	1058.2
68.3	1104.0	1058.2
68.31	1099.0	1058.3
68.32	1095.0	1058.3
68.33	1094.0	1058.3
68.34	1100.0	1058.4
68.35	1086.0	1058.4
68.36	1036.0	1058.5
68.37	1053.0	1058.5
68.38	1092.0	1058.5
68.39	1075.0	1058.6
68.4	1100.0	1058.6
68.41	1128.0	1058.7
68.42	1079.0	1058.7
68.43	1115.0	1058.7
68.44	1103.0	1058.8
68.45	1096.0	1058.8
68.46	1070.0	1058.9
68.47	1103.0	1058.9
68.48	1138.0	1058.9
68.49	1156.0	1059.0
68.5	1130.0	1059.0
68.51	1110.0	1059.1
68.52	1112.0	1059.1
68.53	1096.0	1059.1
68.54	1104.0	1059.2
68.55	1068.0	1059.2
68.56	1055.0	1059.3
68.57	1090.0	1059.3
68.58	1085.0	1059.3
68.59	1083.0	1059.4
68.6	1087.0	1059.4
68.61	1060.0	1059.5
68.62	1135.0	1059.5
68.63	1159.0	1059.5
68.64	1148.0	1059.6
68.65	1069.0	1059.6
68.66	1139.0	1059.7
68.67	1104.0	1059.7
68.68	1062.0	1059.7
68.69	1081.0	1059.8
68.7	1084.0	1059.8
68.71	1118.0	1059.9
68.72	1131.0	1059.9
68.73	1086.0	1059.9
68.74	1122.0	1060.0
68.75	1082.0	1060.0
68.76	1088.0	1060.1
68.77	1048.0	1060.1
68.78	1090.0	1060.1
68.79	1068.0	1060.2
68.8	1074.0	1060.2
68.81	1101.0	1060.3
68.82	1091.0	1060.3
68.83	1101.0	1060.3
68.84	1119.0	1060.4
68.85	1126.0	1060.4
68.86	1095.0	1060.5
68.87	1076.0	1060.5
68.88	1115.0	1060.6
68.89	1091.0	1060.6
68.9	1102.0	1060.6
68.91	1101.0	1060.7
68.92	1099.0	1060.7
68.93	1096.0	1060.8
68.94	1100.0	1060.8
68.95	1063.0	1060.8
68.96	1083.0	1060.9
68.97	1094.0	1060.9
68.98	1122.0	1061.0
68.99	1149.0	1061.0
69.0	1150.0	1061.0
69.01	1085.0	1061.1
69.02	1096.0	1061.1
69.03	1115.0	1061.2
69.04	1075.0	1061.2
69.05	1082.0	1061.2
69.06	1102.0	1061.3
69.07	1153.0	1061.3
69.08	1132.0	1061.4
69.09	1119.0	1061.4
69.1	1125.0	1061.5
69.11	1103.0	1061.5
69.12	1079.0	1061.5
69.13	1093.0	1061.6
69.14	1109.0	1061.6
69.15	1111.0	1061.7
69.16	1120.0	1061.7
69.17	1115.0	1061.7
69.18	1119.0	1061.8
69.19	1078.0	1061.8
69.2	1095.0	1061.9
69.21	1102.0	1061.9
69.22	1140.0	1062.0
69.23	1135.0	1062.0
69.24	1132.0	1062.0
69.25	1095.0	1062.1
69.26	1120.0	1062.1
69.27	1148.0	1062.2
69.28	1125.0	1062.2
69.29	1093.0	1062.3
69.3	1078.0	1062.3
69.31	1118.0	1062.3
69.32	1110.0	1062.4
69.33	1068.0	1062.4
69.34	1095.0	1062.5
69.35	1086.0	1062.5
69.36	1077.0	1062.6
69.37	1088.0	1062.6
69.38	1084.0	1062.6
69.39	1109.0	1062.7
69.4	1055.0	1062.7
69.41	1101.0	1062.8
69.42	1132.0	1062.8
69.43	1126.0	1062.9
69.44	1150.0	1062.9
69.45	1158.0	1062.9
69.46	1133.0	1063.0
69.47	1140.0	1063.0
69.48	1144.0	1063.1
69.49	1133.0	1063.1
69.5	1141.0	1063.2
69.51	1163.0	1063.2
69.52	1179.0	1063.2
69.53	1172.0	1063.3
69.54	1157.0	1063.3
69.55	1177.0	1063.4
69.56	1135.0	1063.4
69.57	1136.0	1063.5
69.58	1179.0	1063.5
69.59	1192.0	1063.6
69.6	1204.0	1063.6
69.61	1237.0	1063.6
69.62	1197.0	1063.7
69.63	1226.0	1063.7
69.64	1263.0	1063.8
69.65	1214.0	1063.8
69.66	1270.0	1063.9
69.67	1279.0	1063.9
69.68	1246.0	1064.0
69.69	1268.0	1064.0
69.7	1276.0	1064.1
69.71	1271.0	1064.1
69.72	1264.0	1064.1
69.73	1270.0	1064.2
69.74	1300.0	1064.2
69.75	1315.0	1064.3
69.76	1346.0	1064.3
69.77	1340.0	1064.4
69.78	1359.0	1064.4
69.79	1403.0	1064.5
69.8	1435.0	1064.5
69.81	1464.0	1064.6
69.82	1467.0	1064.6
69.83	1485.0	1064.7
69.84	1526.0	1064.7
69.85	1557.0	1064.7
69.86	1579.0	1064.8
69.87	1559.0	1064.8
69.88	1648.0	1064.9
69.89	1672.0	1064.9
69.9	1689.0	1065.0
69.91	1718.0	1065.0
69.92	1710.0	1065.1
69.93	1784.0	1065.1
69.94	1776.0	1065.2
69.95	1782.0	1065.2
69.96	1764.0	1065.3
69.97	1774.0	1065.3
69.98	1716.0	1065.4
69.99	1730.0	1065.4
70.0	1810.0	1065.5
70.01	1786.0	1065.5
70.02	1757.0	1065.6
70.03	1693.0	1065.6
70.04	1634.0	1065.7
70.05	1630.0	1065.7
70.06	1678.0	1065.8
70.07	1682.0	1065.8
70.08	1611.0	1065.9
70.09	1586.0	1065.9
70.1	1625.0	1066.0
70.11	1617.0	1066.0
70.12	1587.0	1066.1
70.13	1537.0	1066.1
70.14	1581.0	1066.2
70.15	1552.0	1066.2
70.16	1492.0	1066.3
70.17	1515.0	1066.3
70.18	1529.0	1066.4
70.19	1501.0	1066.4
70.2	1453.0	1066.5
70.21	1406.0	1066.5
70.22	1384.0	1066.6
70.23	1403.0	1066.6
70.24	1406.0	1066.7
70.25	1381.0	1066.7
70.26	1331.0	1066.8
70.27	1349.0	1066.8
70.28	1330.0	1066.9
70.29	1292.0	1066.9
70.3	1262.0	1067.0
70.31	1270.0	1067.0
70.32	1244.0	1067.1
70.33	1213.0	1067.1
70.34	1248.0	1067.2
70.35	1250.0	1067.2
70.36	1290.0	1067.3
70.37	1251.0	1067.3
70.38	1193.0	1067.4
70.39	1195.0	1067.4
70.4	1212.0	1067.5
70.41	1171.0	1067.5
70.42	1112.0	1067.6
70.43	1142.0	1067.6
70.44	1196.0	1067.7
70.45	1196.0	1067.8
70.46	1221.0	1067.8
70.47	1221.0	1067.9
70.48	1202.0	1067.9
70.49	1178.0	1068.0
70.5	1125.0	1068.0
70.51	1200.0	1068.1
70.52	1134.0	1068.1
70.53	1097.0	1068.2
70.54	1087.0	1068.2
70.55	1114.0	1068.3
70.56	1134.0	1068.4
70.57	1125.0	1068.4
70.58	1159.0	1068.5
70.59	1143.0	1068.5
70.6	1122.0	1068.6
70.61	1133.0	1068.6
70.62	1141.0	1068.7
70.63	1129.0	1068.7
70.64	1132.0	1068.8
70.65	1122.0	1068.9
70.66	1140.0	1068.9
70.67	1152.0	1069.0
70.68	1135.0	1069.0
70.69	1120.0	1069.1
70.7	1131.0	1069.1
70.71	1106.0	1069.2
70.72	1110.0	1069.3
70.73	1118.0	1069.3
70.74	1154.0	1069.4
70.75	1172.0	1069.4
70.76	1132.0	1069.5
70.77	1121.0	1069.6
70.78	1137.0	1069.6
70.79	1109.0	1069.7
70.8	1125.0	1069.7
70.81	1118.0	1069.8
70.82	1139.0	1069.8
70.83	1144.0	1069.9
70.84	1150.0	1070.0
70.85	1135.0	1070.0
70.86	1165.0	1070.1
70.87	1137.0	1070.1
70.88	1124.0	1070.2
70.89	1126.0	1070.3
70.9	1145.0	1070.3
70.91	1141.0	1070.4
70.92	1140.0	1070.4
70.93	1099.0	1070.5
70.94	1121.0	1070.6
70.95	1128.0	1070.6
70.96	1145.0	1070.7
70.97	1148.0	1070.8
70.98	1123.0	1070.8
70.99	1111.0	1070.9
71.0	1116.0	1070.9
71.01	1094.0	1071.0
71.02	1104.0	1071.1
71.03	1110.0	1071.1
71.04	1097.0	1071.2
71.05	1125.0	1071.2
71.06	1128.0	1071.3
71.07	1129.0	1071.4
71.08	1119.0	1071.4
71.09	1130.0	1071.5
71.1	1101.0	1071.6
71.11	1118.0	1071.6
71.12	1120.0	1071.7
71.13	1105.0	1071.8
71.14	1153.0	1071.8
71.15	1105.0	1071.9
71.16	1111.0	1072.0
71.17	1151.0	1072.0
71.18	1133.0	1072.1
71.19	1121.0	1072.1
71.2	1137.0	1072.2
71.21	1110.0	1072.3
71.22	1144.0	1072.3
71.23	1125.0	1072.4
71.24	1128.0	1072.5
71.25	1108.0	1072.5
71.26	1122.0	1072.6
71.27	1128.0	1072.7
71.28	1093.0	1072.7
71.29	1095.0	1072.8
71.3	1131.0	1072.9
71.31	1162.0	1072.9
71.32	1111.0	1073.0
71.33	1119.0	1073.1
71.34	1084.0	1073.2
71.35	1129.0	1073.2
71.36	1171.0	1073.3
71.37	1107.0	1073.4
71.38	1096.0	1073.4
71.39	1113.0	1073.5
71.4	1094.0	1073.6
71.41	1095.0	1073.6
71.42	1089.0	1073.7
71.43	1076.0	1073.8
71.44	1085.0	1073.8
71.45	1100.0	1073.9
71.46	1106.0	1074.0
71.47	1112.0	1074.1
71.48	1131.0	1074.1
71.49	1113.0	1074.2
71.5	1087.0	1074.3
71.51	1109.0	1074.3
71.52	1130.0	1074.4
71.53	1132.0	1074.5
71.54	1101.0	1074.6
71.55	1081.0	1074.6
71.56	1111.0	1074.7
71.57	1113.0	1074.8
71.58	1109.0	1074.8
71.59	1058.0	1074.9
71.6	1067.0	1075.0
71.61	1115.0	1075.1
71.62	1104.0	1075.1
71.63	1148.0	1075.2
71.64	1132.0	1075.3
71.65	1091.0	1075.4
71.66	1120.0	1075.4
71.67	1146.0	1075.5
71.68	1097.0	1075.6
71.69	1131.0	1075.7
71.7	1182.0	1075.7
71.71	1128.0	1075.8
71.72	1120.0	1075.9
71.73	1094.0	1076.0
71.74	1067.0	1076.0
71.75	1093.0	1076.1
71.76	1081.0	1076.2
71.77	1117.0	1076.3
71.78	1103.0	1076.4
71.79	1094.0	1076.4
71.8	1111.0	1076.5
71.81	1155.0	1076.6
71.82	1142.0	1076.7
71.83	1121.0	1076.7
71.84	1113.0	1076.8
71.85	1131.0	1076.9
71.86	1130.0	1077.0
71.87	1160.0	1077.1
71.88	1142.0	1077.1
71.89	1121.0	1077.2
71.9	1126.0	1077.3
71.91	1118.0	1077.4
71.92	1101.0	1077.5
71.93	1085.0	1077.5
71.94	1140.0	1077.6
71.95	1140.0	1077.7
71.96	1095.0	1077.8
71.97	1144.0	1077.9
71.98	1161.0	1077.9
71.99	1166.0	1078.0
72.0	1150.0	1078.1
72.01	1100.0	1078.2
72.02	1116.0	1078.3
72.03	1124.0	1078.4
72.04	1080.0	1078.4
72.05	1139.0	1078.5
72.06	1136.0	1078.6
72.07	1087.0	1078.7
72.08	1084.0	1078.8
72.09	1086.0	1078.9
72.1	1097.0	1078.9
72.11	1126.0	1079.0
72.12	1118.0	1079.1
72.13	1126.0	1079.2
72.14	1108.0	1079.3
72.15	1113.0	1079.4
72.16	1112.0	1079.5
72.17	1120.0	1079.5
72.18	1136.0	1079.6
72.19	1102.0	1079.7
72.2	1119.0	1079.8
72.21	1082.0	1079.9
72.22	1091.0	1080.0
72.23	1109.0	1080.1
72.24	1116.0	1080.2
72.25	1101.0	1080.2
72.26	1093.0	1080.3
72.27	1117.0	1080.4
72.28	1122.0	1080.5
72.29	1116.0	1080.6
72.3	1114.0	1080.7
72.31	1113.0	1080.8
72.32	1089.0	1080.9
72.33	1084.0	1081.0
72.34	1122.0	1081.1
72.35	1153.0	1081.1
72.36	1117.0	1081.2
72.37	1100.0	1081.3
72.38	1129.0	1081.4
72.39	1118.0	1081.5
72.4	1136.0	1081.6
72.41	1114.0	1081.7
72.42	1120.0	1081.8
72.43	1131.0	1081.9
72.44	1160.0	1082.0
72.45	1133.0	1082.1
72.46	1096.0	1082.2
72.47	1102.0	1082.3
72.48	1113.0	1082.3
72.49	1113.0	1082.4
72.5	1103.0	1082.5
72.51	1150.0	1082.6
72.52	1131.0	1082.7
72.53	1158.0	1082.8
72.54	1145.0	1082.9
72.55	1117.0	1083.0
72.56	1111.0	1083.1
72.57	1105.0	1083.2
72.58	1097.0	1083.3
72.59	1124.0	1083.4
72.6	1109.0	1083.5
72.61	1109.0	1083.6
72.62	1115.0	1083.7
72.63	1113.0	1083.8
72.64	1134.0	1083.9
72.65	1087.0	1084.0
72.66	1087.0	1084.1
72.67	1104.0	1084.2
72.68	1133.0	1084.3
72.69	1107.0	1084.4
72.7	1090.0	1084.5
72.71	1127.0	1084.6
72.72	1104.0	1084.7
72.73	1090.0	1084.8
72.74	1108.0	1084.9
72.75	1089.0	1085.0
72.76	1104.0	1085.1
72.77	1123.0	1085.2
72.78	1108.0	1085.3
72.79	1118.0	1085.4
72.8	1151.0	1085.5
72.81	1135.0	1085.6
72.82	1115.0	1085.7
72.83	1118.0	1085.8
72.84	1137.0	1085.9
72.85	1155.0	1086.0
72.86	1132.0	1086.1
72.87	1111.0	1086.2
72.88	1080.0	1086.3
72.89	1099.0	1086.5
72.9	1115.0	1086.6
72.91	1098.0	1086.7
72.92	1086.0	1086.8
72.93	1111.0	1086.9
72.94	1118.0	1087.0
72.95	1112.0	1087.1
72.96	1092.0	1087.2
72.97	1113.0	1087.3
72.98	1116.0	1087.4
72.99	1095.0	1087.5
73.0	1109.0	1087.6
73.01	1116.0	1087.7
73.02	1149.0	1087.9
73.03	1169.0	1088.0
73.04	1099.0	1088.1
73.05	1124.0	1088.2
73.06	1146.0	1088.3
73.07	1125.0	1088.4
73.08	1113.0	1088.5
73.09	1088.0	1088.6
73.1	1090.0	1088.7
73.11	1080.0	1088.9
73.12	1089.0	1089.0
73.13	1123.0	1089.1
73.14	1145.0	1089.2
73.15	1129.0	1089.3
73.16	1089.0	1089.4
73.17	1100.0	1089.5
73.18	1134.0	1089.6
73.19	1141.0	1089.8
73.2	1123.0	1089.9
73.21	1123.0	1090.0
73.22	1087.0	1090.1
73.23	1070.0	1090.2
73.24	1094.0	1090.3
73.25	1135.0	1090.5
73.26	1167.0	1090.6
73.27	1089.0	1090.7
73.28	1109.0	1090.8
73.29	1092.0	1090.9
73.3	1135.0	1091.0
73.31	1160.0	1091.2
73.32	1094.0	1091.3
73.33	1095.0	1091.4
73.34	1126.0	1091.5
73.35	1152.0	1091.6
73.36	1117.0	1091.8
73.37	1090.0	1091.9
73.38	1075.0	1092.0
73.39	1086.0	1092.1
73.4	1146.0	1092.2
73.41	1157.0	1092.4
73.42	1141.0	1092.5
73.43	1126.0	1092.6
73.44	1143.0	1092.7
73.45	1125.0	1092.9
73.46	1129.0	1093.0
73.47	1132.0	1093.1
73.48	1137.0	1093.2
73.49	1111.0	1093.4
73.5	1098.0	1093.5
73.51	1114.0	1093.6
73.52	1098.0	1093.7
73.53	1107.0	1093.9
73.54	1098.0	1094.0
73.55	1114.0	1094.1
73.56	1146.0	1094.2
73.57	1139.0	1094.4
73.58	1111.0	1094.5
73.59	1115.0	1094.6
73.6	1138.0	1094.7
73.61	1110.0	1094.9
73.62	1107.0	1095.0
73.63	1123.0	1095.1
73.64	1127.0	1095.3
73.65	1151.0	1095.4
73.66	1142.0	1095.5
73.67	1113.0	1095.6
73.68	1126.0	1095.8
73.69	1139.0	1095.9
73.7	1122.0	1096.0
73.71	1143.0	1096.2
73.72	1118.0	1096.3
73.73	1114.0	1096.4
73.74	1142.0	1096.6
73.75	1147.0	1096.7
73.76	1160.0	1096.8
73.77	1103.0	1097.0
73.78	1126.0	1097.1
73.79	1152.0	1097.2
73.8	1153.0	1097.4
73.81	1101.0	1097.5
73.82	1087.0	1097.6
73.83	1090.0	1097.8
73.84	1117.0	1097.9
73.85	1136.0	1098.1
73.86	1148.0	1098.2
73.87	1052.0	1098.3
73.88	1057.0	1098.5
73.89	1134.0	1098.6
73.9	1126.0	1098.7
73.91	1143.0	1098.9
73.92	1162.0	1099.0
73.93	1162.0	1099.2
73.94	1128.0	1099.3
73.95	1148.0	1099.4
73.96	1146.0	1099.6
73.97	1105.0	1099.7
73.98	1116.0	1099.9
73.99	1121.0	1100.0
74.0	1098.0	1100.2
74.01	1120.0	1100.3
74.02	1128.0	1100.4
74.03	1122.0	1100.6
74.04	1115.0	1100.7
74.05	1152.0	1100.9
74.06	1141.0	1101.0
74.07	1113.0	1101.2
74.08	1075.0	1101.3
74.09	1129.0	1101.4
74.1	1117.0	1101.6
74.11	1130.0	1101.7
74.12	1144.0	1101.9
74.13	1149.0	1102.0
74.14	1132.0	1102.2
74.15	1149.0	1102.3
74.16	1091.0	1102.5
74.17	1126.0	1102.6
74.18	1141.0	1102.8
74.19	1133.0	1102.9
74.2	1147.0	1103.1
74.21	1126.0	1103.2
74.22	1111.0	1103.4
74.23	1109.0	1103.5
74.24	1125.0	1103.6
74.25	1127.0	1103.8
74.26	1151.0	1103.9
74.27	1147.0	1104.1
74.28	1116.0	1104.2
74.29	1130.0	1104.4
74.3	1115.0	1104.5
74.31	1138.0	1104.7
74.32	1131.0	1104.9
74.33	1126.0	1105.0
74.34	1158.0	1105.2
74.35	1137.0	1105.3
74.36	1105.0	1105.5
74.37	1116.0	1105.6
74.38	1107.0	1105.8
74.39	1077.0	1105.9
74.4	1069.0	1106.1
74.41	1116.0	1106.2
74.42	1109.0	1106.4
74.43	1125.0	1106.5
74.44	1163.0	1106.7
74.45	1129.0	1106.8
74.46	1119.0	1107.0
74.47	1135.0	1107.1
74.48	1116.0	1107.3
74.49	1108.0	1107.5
74.5	1134.0	1107.6
74.51	1138.0	1107.8
74.52	1161.0	1107.9
74.53	1156.0	1108.1
74.54	1150.0	1108.2
74.55	1186.0	1108.4
74.56	1124.0	1108.6
74.57	1122.0	1108.7
74.58	1157.0	1108.9
74.59	1153.0	1109.0
74.6	1123.0	1109.2
74.61	1069.0	1109.3
74.62	1094.0	1109.5
74.63	1158.0	1109.7
74.64	1146.0	1109.8
74.65	1130.0	1110.0
74.66	1134.0	1110.1
74.67	1127.0	1110.3
74.68	1126.0	1110.5
74.69	1152.0	1110.6
74.7	1144.0	1110.8
74.71	1153.0	1110.9
74.72	1161.0	1111.1
74.73	1145.0	1111.2
74.74	1149.0	1111.4
74.75	1167.0	1111.6
74.76	1194.0	1111.7
74.77	1153.0	1111.9
74.78	1127.0	1112.1
74.79	1169.0	1112.2
74.8	1119.0	1112.4
74.81	1113.0	1112.5
74.82	1147.0	1112.7
74.83	1143.0	1112.9
74.84	1111.0	1113.0
74.85	1118.0	1113.2
74.86	1131.0	1113.3
74.87	1129.0	1113.5
74.88	1123.0	1113.7
74.89	1140.0	1113.8
74.9	1149.0	1114.0
74.91	1137.0	1114.2
74.92	1098.0	1114.3
74.93	1131.0	1114.5
74.94	1148.0	1114.6
74.95	1161.0	1114.8
74.96	1194.0	1115.0
74.97	1142.0	1115.1
74.98	1126.0	1115.3
74.99	1119.0	1115.5
75.0	1143.0	1115.6
75.01	1137.0	1115.8
75.02	1136.0	1116.0
75.03	1148.0	1116.1
75.04	1146.0	1116.3
75.05	1132.0	1116.4
75.06	1129.0	1116.6
75.07	1118.0	1116.8
75.08	1141.0	1116.9
75.09	1120.0	1117.1
75.1	1115.0	1117.3
75.11	1155.0	1117.4
75.12	1161.0	1117.6
75.13	1120.0	1117.8
75.14	1120.0	1117.9
75.15	1124.0	1118.1
75.16	1176.0	1118.3
75.17	1178.0	1118.4
75.18	1195.0	1118.6
75.19	1158.0	1118.8
75.2	1161.0	1118.9
75.21	1156.0	1119.1
75.22	1152.0	1119.2
75.23	1119.0	1119.4
75.24	1119.0	1119.6
75.25	1105.0	1119.7
75.26	1115.0	1119.9
75.27	1141.0	1120.1
75.28	1154.0	1120.2
75.29	1148.0	1120.4
75.3	1162.0	1120.6
75.31	1123.0	1120.7
75.32	1119.0	1120.9
75.33	1115.0	1121.1
75.34	1144.0	1121.2
75.35	1169.0	1121.4
75.36	1124.0	1121.6
75.37	1146.0	1121.7
75.38	1125.0	1121.9
75.39	1120.0	1122.1
75.4	1123.0	1122.2
75.41	1106.0	1122.4
75.42	1114.0	1122.6
75.43	1155.0	1122.7
75.44	1117.0	1122.9
75.45	1112.0	1123.1
75.46	1086.0	1123.2
75.47	1099.0	1123.4
75.48	1094.0	1123.6
75.49	1126.0	1123.7
75.5	1167.0	1123.9
75.51	1172.0	1124.1
75.52	1148.0	1124.2
75.53	1140.0	1124.4
75.54	1168.0	1124.6
75.55	1183.0	1124.7
75.56	1158.0	1124.9
75.57	1162.0	1125.1
75.58	1180.0	1125.2
75.59	1164.0	1125.4
75.6	1169.0	1125.6
75.61	1173.0	1125.7
75.62	1156.0	1125.9
75.63	1163.0	1126.1
75.64	1143.0	1126.2
75.65	1127.0	1126.4
75.66	1153.0	1126.6
75.67	1174.0	1126.7
75.68	1125.0	1126.9
75.69	1086.0	1127.1
75.7	1122.0	1127.2
75.71	1099.0	1127.4
75.72	1093.0	1127.6
75.73	1135.0	1127.7
75.74	1151.0	1127.9
75.75	1112.0	1128.0
75.76	1124.0	1128.2
75.77	1160.0	1128.4
75.78	1167.0	1128.5
75.79	1145.0	1128.7
75.8	1147.0	1128.9
75.81	1154.0	1129.0
75.82	1163.0	1129.2
75.83	1144.0	1129.4
75.84	1126.0	1129.5
75.85	1125.0	1129.7
75.86	1164.0	1129.9
75.87	1144.0	1130.0
75.88	1168.0	1130.2
75.89	1158.0	1130.4
75.9	1115.0	1130.5
75.91	1128.0	1130.7
75.92	1144.0	1130.9
75.93	1173.0	1131.0
75.94	1153.0	1131.2
75.95	1125.0	1131.3
75.96	1155.0	1131.5
75.97	1189.0	1131.7
75.98	1150.0	1131.8
75.99	1153.0	1132.0
76.0	1154.0	1132.2
76.01	1137.0	1132.3
76.02	1157.0	1132.5
76.03	1180.0	1132.7
76.04	1156.0	1132.8
76.05	1191.0	1133.0
76.06	1161.0	1133.1
76.07	1129.0	1133.3
76.08	1166.0	1133.5
76.09	1175.0	1133.6
76.1	1138.0	1133.8
76.11	1155.0	1134.0
76.12	1165.0	1134.1
76.13	1137.0	1134.3
76.14	1167.0	1134.4
76.15	1164.0	1134.6
76.16	1158.0	1134.8
76.17	1143.0	1134.9
76.18	1153.0	1135.1
76.19	1103.0	1135.2
76.2	1126.0	1135.4
76.21	1166.0	1135.6
76.22	1163.0	1135.7
76.23	1132.0	1135.9
76.24	1159.0	1136.0
76.25	1191.0	1136.2
76.26	1158.0	1136.4
76.27	1147.0	1136.5
76.28	1179.0	1136.7
76.29	1208.0	1136.8
76.3	1171.0	1137.0
76.31	1129.0	1137.2
76.32	1146.0	1137.3
76.33	1165.0	1137.5
76.34	1155.0	1137.6
76.35	1167.0	1137.8
76.36	1161.0	1138.0
76.37	1167.0	1138.1
76.38	1180.0	1138.3
76.39	1148.0	1138.4
76.4	1131.0	1138.6
76.41	1161.0	1138.7
76.42	1158.0	1138.9
76.43	1132.0	1139.1
76.44	1175.0	1139.2
76.45	1158.0	1139.4
76.46	1162.0	1139.5
76.47	1171.0	1139.7
76.48	1110.0	1139.8
76.49	1139.0	1140.0
76.5	1188.0	1140.1
76.51	1131.0	1140.3
76.52	1167.0	1140.5
76.53	1150.0	1140.6
76.54	1165.0	1140.8
76.55	1186.0	1140.9
76.56	1198.0	1141.1
76.57	1188.0	1141.2
76.58	1179.0	1141.4
76.59	1170.0	1141.5
76.6	1161.0	1141.7
76.61	1162.0	1141.8
76.62	1184.0	1142.0
76.63	1177.0	1142.1
76.64	1167.0	1142.3
76.65	1123.0	1142.4
76.66	1139.0	1142.6
76.67	1141.0	1142.7
76.68	1187.0	1142.9
76.69	1181.0	1143.0
76.7	1191.0	1143.2
76.71	1187.0	1143.3
76.72	1173.0	1143.5
76.73	1145.0	1143.6
76.74	1131.0	1143.8
76.75	1147.0	1143.9
76.76	1145.0	1144.1
76.77	1150.0	1144.2
76.78	1154.0	1144.4
76.79	1148.0	1144.5
76.8	1166.0	1144.7
76.81	1190.0	1144.8
76.82	1171.0	1145.0
76.83	1148.0	1145.1
76.84	1164.0	1145.3
76.85	1183.0	1145.4
76.86	1212.0	1145.6
76.87	1179.0	1145.7
76.88	1180.0	1145.9
76.89	1197.0	1146.0
76.9	1203.0	1146.1
76.91	1165.0	1146.3
76.92	1154.0	1146.4
76.93	1187.0	1146.6
76.94	1202.0	1146.7
76.95	1188.0	1146.9
76.96	1173.0	1147.0
76.97	1122.0	1147.1
76.98	1134.0	1147.3
76.99	1165.0	1147.4
77.0	1180.0	1147.6
77.01	1157.0	1147.7
77.02	1158.0	1147.8
77.03	1151.0	1148.0
77.04	1181.0	1148.1
77.05	1135.0	1148.3
77.06	1128.0	1148.4
77.07	1141.0	1148.5
77.08	1146.0	1148.7
77.09	1147.0	1148.8
77.1	1138.0	1149.0
77.11	1167.0	1149.1
77.12	1198.0	1149.2
77.13	1185.0	1149.4
77.14	1197.0	1149.5
77.15	1143.0	1149.6
77.16	1122.0	1149.8
77.17	1155.0	1149.9
77.18	1149.0	1150.1
77.19	1124.0	1150.2
77.2	1170.0	1150.3
77.21	1204.0	1150.5
77.22	1157.0	1150.6
77.23	1136.0	1150.7
77.24	1114.0	1150.9
77.25	1142.0	1151.0
77.26	1182.0	1151.1
77.27	1196.0	1151.2
77.28	1179.0	1151.4
77.29	1132.0	1151.5
77.3	1153.0	1151.6
77.31	1203.0	1151.8
77.32	1197.0	1151.9
77.33	1160.0	1152.0
77.34	1193.0	1152.2
77.35	1212.0	1152.3
77.36	1189.0	1152.4
77.37	1163.0	1152.5
77.38	1140.0	1152.7
77.39	1173.0	1152.8
77.4	1233.0	1152.9
77.41	1188.0	1153.0
77.42	1157.0	1153.2
77.43	1180.0	1153.3
77.44	1190.0	1153.4
77.45	1205.0	1153.5
77.46	1203.0	1153.7
77.47	1181.0	1153.8
77.48	1172.0	1153.9
77.49	1177.0	1154.0
77.5	1174.0	1154.2
77.51	1174.0	1154.3
77.52	1126.0	1154.4
77.53	1182.0	1154.5
77.54	1164.0	1154.6
77.55	1192.0	1154.8
77.56	1181.0	1154.9
77.57	1143.0	1155.0
77.58	1203.0	1155.1
77.59	1204.0	1155.2
77.6	1199.0	1155.3
77.61	1187.0	1155.5
77.62	1185.0	1155.6
77.63	1174.0	1155.7
77.64	1147.0	1155.8
77.65	1144.0	1155.9
77.66	1192.0	1156.0
77.67	1177.0	1156.2
77.68	1163.0	1156.3
77.69	1147.0	1156.4
77.7	1153.0	1156.5
77.71	1177.0	1156.6
77.72	1185.0	1156.7
77.73	1181.0	1156.8
77.74	1209.0	1156.9
77.75	1176.0	1157.1
77.76	1149.0	1157.2
77.77	1149.0	1157.3
77.78	1169.0	1157.4
77.79	1214.0	1157.5
77.8	1178.0	1157.6
77.81	1129.0	1157.7
77.82	1142.0	1157.8
77.83	1165.0	1157.9
77.84	1204.0	1158.0
77.85	1207.0	1158.1
77.86	1146.0	1158.2
77.87	1125.0	1158.3
77.88	1170.0	1158.4
77.89	1179.0	1158.5
77.9	1153.0	1158.6
77.91	1177.0	1158.7
77.92	1190.0	1158.8
77.93	1202.0	1158.9
77.94	1189.0	1159.0
77.95	1187.0	1159.1
77.96	1189.0	1159.2
77.97	1251.0	1159.3
77.98	1248.0	1159.4
77.99	1206.0	1159.5
78.0	1177.0	1159.6
78.01	1230.0	1159.7
78.02	1252.0	1159.8
78.03	1188.0	1159.9
78.04	1183.0	1160.0
78.05	1163.0	1160.1
78.06	1142.0	1160.2
78.07	1188.0	1160.3
78.08	1199.0	1160.4
78.09	1206.0	1160.5
78.1	1205.0	1160.6
78.11	1227.0	1160.7
78.12	1171.0	1160.8
78.13	1200.0	1160.9
78.14	1244.0	1160.9
78.15	1192.0	1161.0
78.16	1179.0	1161.1
78.17	1248.0	1161.2
78.18	1227.0	1161.3
78.19	1254.0	1161.4
78.2	1218.0	1161.5
78.21	1225.0	1161.6
78.22	1240.0	1161.7
78.23	1240.0	1161.7
78.24	1218.0	1161.8
78.25	1176.0	1161.9
78.26	1188.0	1162.0
78.27	1232.0	1162.1
78.28	1237.0	1162.2
78.29	1234.0	1162.2
78.3	1229.0	1162.3
78.31	1283.0	1162.4
78.32	1263.0	1162.5
78.33	1243.0	1162.6
78.34	1227.0	1162.7
78.35	1272.0	1162.7
78.36	1316.0	1162.8
78.37	1240.0	1162.9
78.38	1259.0	1163.0
78.39	1250.0	1163.1
78.4	1278.0	1163.1
78.41	1343.0	1163.2
78.42	1285.0	1163.3
78.43	1279.0	1163.4
78.44	1303.0	1163.5
78.45	1287.0	1163.5
78.46	1314.0	1163.6
78.47	1315.0	1163.7
78.48	1263.0	1163.8
78.49	1268.0	1163.8
78.5	1293.0	1163.9
78.51	1271.0	1164.0
78.52	1278.0	1164.1
78.53	1329.0	1164.1
78.54	1287.0	1164.2
78.55	1265.0	1164.3
78.56	1299.0	1164.4
78.57	1279.0	1164.4
78.58	1302.0	1164.5
78.59	1278.0	1164.6
78.6	1323.0	1164.6
78.61	1321.0	1164.7
78.62	1334.0	1164.8
78.63	1347.0	1164.9
78.64	1351.0	1164.9
78.65	1354.0	1165.0
78.66	1361.0	1165.1
78.67	1365.0	1165.1
78.68	1342.0	1165.2
78.69	1393.0	1165.3
78.7	1395.0	1165.3
78.71	1389.0	1165.4
78.72	1372.0	1165.5
78.73	1385.0	1165.5
78.74	1396.0	1165.6
78.75	1406.0	1165.7
78.76	1425.0	1165.7
78.77	1401.0	1165.8
78.78	1403.0	1165.9
78.79	1454.0	1165.9
78.8	1409.0	1166.0
78.81	1419.0	1166.1
78.82	1394.0	1166.1
78.83	1379.0	1166.2
78.84	1428.0	1166.2
78.85	1428.0	1166.3
78.86	1376.0	1166.4
78.87	1393.0	1166.4
78.88	1396.0	1166.5
78.89	1367.0	1166.6
78.9	1342.0	1166.6
78.91	1388.0	1166.7
78.92	1358.0	1166.7
78.93	1332.0	1166.8
78.94	1386.0	1166.9
78.95	1386.0	1166.9
78.96	1377.0	1167.0
78.97	1334.0	1167.0
78.98	1348.0	1167.1
78.99	1335.0	1167.2
79.0	1317.0	1167.2
79.01	1361.0	1167.3
79.02	1323.0	1167.3
79.03	1364.0	1167.4
79.04	1332.0	1167.5
79.05	1299.0	1167.5
79.06	1321.0	1167.6
79.07	1338.0	1167.6
79.08	1353.0	1167.7
79.09	1327.0	1167.7
79.1	1320.0	1167.8
79.11	1328.0	1167.8
79.12	1327.0	1167.9
79.13	1266.0	1168.0
79.14	1285.0	1168.0
79.15	1342.0	1168.1
79.16	1339.0	1168.1
79.17	1316.0	1168.2
79.18	1304.0	1168.2
79.19	1274.0	1168.3
79.2	1285.0	1168.3
79.21	1274.0	1168.4
79.22	1297.0	1168.4
79.23	1335.0	1168.5
79.24	1327.0	1168.5
79.25	1330.0	1168.6
79.26	1331.0	1168.7
79.27	1316.0	1168.7
79.28	1299.0	1168.8
79.29	1279.0	1168.8
79.3	1314.0	1168.9
79.31	1295.0	1168.9
79.32	1251.0	1169.0
79.33	1286.0	1169.0
79.34	1306.0	1169.1
79.35	1306.0	1169.1
79.36	1300.0	1169.2
79.37	1324.0	1169.2
79.38	1331.0	1169.3
79.39	1372.0	1169.3
79.4	1367.0	1169.4
79.41	1348.0	1169.4
79.42	1366.0	1169.5
79.43	1341.0	1169.5
79.44	1346.0	1169.6
79.45	1330.0	1169.6
79.46	1306.0	1169.7
79.47	1311.0	1169.7
79.48	1321.0	1169.7
79.49	1310.0	1169.8
79.5	1309.0	1169.8
79.51	1304.0	1169.9
79.52	1308.0	1169.9
79.53	1297.0	1170.0
79.54	1282.0	1170.0
79.55	1325.0	1170.1
79.56	1339.0	1170.1
79.57	1338.0	1170.2
79.58	1301.0	1170.2
79.59	1318.0	1170.3
79.6	1379.0	1170.3
79.61	1312.0	1170.4
79.62	1267.0	1170.4
79.63	1302.0	1170.4
79.64	1342.0	1170.5
79.65	1371.0	1170.5
79.66	1336.0	1170.6
79.67	1279.0	1170.6
79.68	1317.0	1170.7
79.69	1285.0	1170.7
79.7	1276.0	1170.8
79.71	1284.0	1170.8
79.72	1288.0	1170.9
79.73	1292.0	1170.9
79.74	1273.0	1170.9
79.75	1265.0	1171.0
79.76	1308.0	1171.0
79.77	1339.0	1171.1
79.78	1348.0	1171.1
79.79	1351.0	1171.2
79.8	1306.0	1171.2
79.81	1268.0	1171.2
79.82	1227.0	1171.3
79.83	1246.0	1171.3
79.84	1291.0	1171.4
79.85	1281.0	1171.4
79.86	1272.0	1171.5
79.87	1274.0	1171.5
79.88	1297.0	1171.5
79.89	1277.0	1171.6
79.9	1279.0	1171.6
79.91	1243.0	1171.7
79.92	1226.0	1171.7
79.93	1281.0	1171.8
79.94	1282.0	1171.8
79.95	1250.0	1171.8
79.96	1228.0	1171.9
79.97	1209.0	1171.9
79.98	1207.0	1172.0
79.99	1201.0	1172.0
80.0	1220.0	1172.1
80.01	1241.0	1172.1
80.02	1231.0	1172.1
80.03	1243.0	1172.2
80.04	1259.0	1172.2
80.05	1268.0	1172.3
80.06	1270.0	1172.3
80.07	1281.0	1172.3
80.08	1219.0	1172.4
80.09	1261.0	1172.4
80.1	1209.0	1172.5
80.11	1208.0	1172.5
80.12	1231.0	1172.6
80.13	1228.0	1172.6
80.14	1235.0	1172.6
80.15	1240.0	1172.7
80.16	1206.0	1172.7
80.17	1197.0	1172.8
80.18	1207.0	1172.8
80.19	1233.0	1172.8
80.2	1195.0	1172.9
80.21	1171.0	1172.9
80.22	1213.0	1173.0
80.23	1210.0	1173.0
80.24	1196.0	1173.1
80.25	1238.0	1173.1
80.26	1212.0	1173.1
80.27	1194.0	1173.2
80.28	1183.0	1173.2
80.29	1227.0	1173.3
80.3	1214.0	1173.3
80.31	1194.0	1173.3
80.32	1196.0	1173.4
80.33	1161.0	1173.4
80.34	1207.0	1173.5
80.35	1217.0	1173.5
80.36	1204.0	1173.6
80.37	1176.0	1173.6
80.38	1200.0	1173.6
80.39	1216.0	1173.7
80.4	1219.0	1173.7
80.41	1215.0	1173.8
80.42	1188.0	1173.8
80.43	1212.0	1173.8
80.44	1213.0	1173.9
80.45	1214.0	1173.9
80.46	1227.0	1174.0
80.47	1215.0	1174.0
80.48	1203.0	1174.1
80.49	1202.0	1174.1
80.5	1214.0	1174.1
80.51	1228.0	1174.2
80.52	1193.0	1174.2
80.53	1254.0	1174.3
80.54	1230.0	1174.3
80.55	1226.0	1174.3
80.56	1227.0	1174.4
80.57	1188.0	1174.4
80.58	1186.0	1174.5
80.59	1207.0	1174.5
80.6	1212.0	1174.6
80.61	1192.0	1174.6
80.62	1202.0	1174.6
80.63	1240.0	1174.7
80.64	1217.0	1174.7
80.65	1167.0	1174.8
80.66	1158.0	1174.8
80.67	1200.0	1174.9
80.68	1239.0	1174.9
80.69	1217.0	1174.9
80.7	1225.0	1175.0
80.71	1209.0	1175.0
80.72	1213.0	1175.1
80.73	1193.0	1175.1
80.74	1190.0	1175.2
80.75	1196.0	1175.2
80.76	1199.0	1175.3
80.77	1202.0	1175.3
80.78	1235.0	1175.3
80.79	1233.0	1175.4
80.8	1227.0	1175.4
80.81	1229.0	1175.5
80.82	1234.0	1175.5
80.83	1238.0	1175.6
80.84	1199.0	1175.6
80.85	1225.0	1175.7
80.86	1260.0	1175.7
80.87	1238.0	1175.8
80.88	1234.0	1175.8
80.89	1163.0	1175.8
80.9	1158.0	1175.9
80.91	1160.0	1175.9
80.92	1157.0	1176.0
80.93	1185.0	1176.0
80.94	1165.0	1176.1
80.95	1191.0	1176.1
80.96	1197.0	1176.2
80.97	1194.0	1176.2
80.98	1221.0	1176.3
80.99	1208.0	1176.3
81.0	1202.0	1176.4
81.01	1197.0	1176.4
81.02	1182.0	1176.5
81.03	1204.0	1176.5
81.04	1242.0	1176.6
81.05	1241.0	1176.6
81.06	1247.0	1176.7
81.07	1157.0	1176.7
81.08	1131.0	1176.7
81.09	1197.0	1176.8
81.1	1167.0	1176.8
81.11	1203.0	1176.9
81.12	1194.0	1176.9
81.13	1200.0	1177.0
81.14	1202.0	1177.0
81.15	1198.0	1177.1
81.16	1259.0	1177.1
81.17	1266.0	1177.2
81.18	1246.0	1177.3
81.19	1206.0	1177.3
81.2	1168.0	1177.4
81.21	1231.0	1177.4
81.22	1242.0	1177.5
81.23	1196.0	1177.5
81.24	1212.0	1177.6
81.25	1261.0	1177.6
81.26	1278.0	1177.7
81.27	1224.0	1177.7
81.28	1237.0	1177.8
81.29	1236.0	1177.8
81.3	1255.0	1177.9
81.31	1244.0	1177.9
81.32	1224.0	1178.0
81.33	1211.0	1178.0
81.34	1222.0	1178.1
81.35	1211.0	1178.2
81.36	1219.0	1178.2
81.37	1216.0	1178.3
81.38	1233.0	1178.3
81.39	1200.0	1178.4
81.4	1220.0	1178.4
81.41	1211.0	1178.5
81.42	1209.0	1178.5
81.43	1214.0	1178.6
81.44	1199.0	1178.7
81.45	1209.0	1178.7
81.46	1229.0	1178.8
81.47	1245.0	1178.8
81.48	1193.0	1178.9
81.49	1225.0	1179.0
81.5	1240.0	1179.0
81.51	1283.0	1179.1
81.52	1253.0	1179.1
81.53	1241.0	1179.2
81.54	1218.0	1179.2
81.55	1236.0	1179.3
81.56	1237.0	1179.4
81.57	1256.0	1179.4
81.58	1243.0	1179.5
81.59	1237.0	1179.6
81.6	1235.0	1179.6
81.61	1239.0	1179.7
81.62	1262.0	1179.7
81.63	1281.0	1179.8
81.64	1249.0	1179.9
81.65	1252.0	1179.9
81.66	1273.0	1180.0
81.67	1265.0	1180.1
81.68	1223.0	1180.1
81.69	1248.0	1180.2
81.7	1293.0	1180.2
81.71	1230.0	1180.3
81.72	1213.0	1180.4
81.73	1252.0	1180.4
81.74	1245.0	1180.5
81.75	1266.0	1180.6
81.76	1255.0	1180.6
81.77	1308.0	1180.7
81.78	1242.0	1180.8
81.79	1280.0	1180.8
81.8	1288.0	1180.9
81.81	1319.0	1181.0
81.82	1320.0	1181.1
81.83	1280.0	1181.1
81.84	1291.0	1181.2
81.85	1327.0	1181.3
81.86	1313.0	1181.3
81.87	1346.0	1181.4
81.88	1353.0	1181.5
81.89	1343.0	1181.5
81.9	1327.0	1181.6
81.91	1357.0	1181.7
81.92	1378.0	1181.8
81.93	1407.0	1181.8
81.94	1372.0	1181.9
81.95	1392.0	1182.0
81.96	1437.0	1182.1
81.97	1489.0	1182.1
81.98	1435.0	1182.2
81.99	1447.0	1182.3
82.0	1493.0	1182.4
82.01	1514.0	1182.4
82.02	1527.0	1182.5
82.03	1533.0	1182.6
82.04	1531.0	1182.7
82.05	1531.0	1182.7
82.06	1533.0	1182.8
82.07	1537.0	1182.9
82.08	1514.0	1183.0
82.09	1550.0	1183.1
82.1	1563.0	1183.1
82.11	1580.0	1183.2
82.12	1588.0	1183.3
82.13	1553.0	1183.4
82.14	1482.0	1183.4
82.15	1476.0	1183.5
82.16	1511.0	1183.6
82.17	1457.0	1183.7
82.18	1457.0	1183.8
82.19	1474.0	1183.9
82.2	1496.0	1183.9
82.21	1520.0	1184.0
82.22	1465.0	1184.1
82.23	1482.0	1184.2
82.24	1530.0	1184.3
82.25	1479.0	1184.3
82.26	1486.0	1184.4
82.27	1525.0	1184.5
82.28	1555.0	1184.6
82.29	1541.0	1184.7
82.3	1519.0	1184.8
82.31	1503.0	1184.9
82.32	1478.0	1184.9
82.33	1485.0	1185.0
82.34	1443.0	1185.1
82.35	1462.0	1185.2
82.36	1495.0	1185.3
82.37	1479.0	1185.4
82.38	1424.0	1185.5
82.39	1444.0	1185.6
82.4	1446.0	1185.6
82.41	1459.0	1185.7
82.42	1444.0	1185.8
82.43	1417.0	1185.9
82.44	1363.0	1186.0
82.45	1391.0	1186.1
82.46	1360.0	1186.2
82.47	1363.0	1186.3
82.48	1367.0	1186.4
82.49	1357.0	1186.4
82.5	1397.0	1186.5
82.51	1419.0	1186.6
82.52	1392.0	1186.7
82.53	1365.0	1186.8
82.54	1345.0	1186.9
82.55	1363.0	1187.0
82.56	1405.0	1187.1
82.57	1363.0	1187.2
82.58	1311.0	1187.3
82.59	1314.0	1187.4
82.6	1292.0	1187.5
82.61	1327.0	1187.6
82.62	1352.0	1187.7
82.63	1337.0	1187.7
82.64	1308.0	1187.8
82.65	1297.0	1187.9
82.66	1364.0	1188.0
82.67	1361.0	1188.1
82.68	1329.0	1188.2
82.69	1320.0	1188.3
82.7	1325.0	1188.4
82.71	1320.0	1188.5
82.72	1332.0	1188.6
82.73	1337.0	1188.7
82.74	1321.0	1188.8
82.75	1313.0	1188.9
82.76	1305.0	1189.0
82.77	1312.0	1189.1
82.78	1335.0	1189.2
82.79	1292.0	1189.3
82.8	1312.0	1189.4
82.81	1296.0	1189.5
82.82	1294.0	1189.6
82.83	1305.0	1189.7
82.84	1335.0	1189.8
82.85	1298.0	1189.9
82.86	1301.0	1190.0
82.87	1334.0	1190.1
82.88	1332.0	1190.2
82.89	1317.0	1190.3
82.9	1320.0	1190.4
82.91	1311.0	1190.5
82.92	1318.0	1190.6
82.93	1312.0	1190.7
82.94	1342.0	1190.8
82.95	1338.0	1190.9
82.96	1338.0	1191.0
82.97	1299.0	1191.1
82.98	1306.0	1191.2
82.99	1295.0	1191.3
83.0	1303.0	1191.4
83.01	1268.0	1191.5
83.02	1265.0	1191.6
83.03	1276.0	1191.7
83.04	1286.0	1191.8
83.05	1331.0	1191.9
83.06	1301.0	1192.1
83.07	1283.0	1192.2
83.08	1309.0	1192.3
83.09	1313.0	1192.4
83.1	1284.0	1192.5
83.11	1247.0	1192.6
83.12	1280.0	1192.7
83.13	1322.0	1192.8
83.14	1325.0	1192.9
83.15	1323.0	1193.0
83.16	1317.0	1193.1
83.17	1303.0	1193.2
83.18	1297.0	1193.3
83.19	1289.0	1193.4
83.2	1339.0	1193.5
83.21	1321.0	1193.7
83.22	1239.0	1193.8
83.23	1286.0	1193.9
83.24	1284.0	1194.0
83.25	1324.0	1194.1
83.26	1328.0	1194.2
83.27	1387.0	1194.3
83.28	1376.0	1194.4
83.29	1347.0	1194.5
83.3	1305.0	1194.6
83.31	1299.0	1194.7
83.32	1325.0	1194.9
83.33	1343.0	1195.0
83.34	1319.0	1195.1
83.35	1323.0	1195.2
83.36	1341.0	1195.3
83.37	1317.0	1195.4
83.38	1320.0	1195.5
83.39	1313.0	1195.6
83.4	1301.0	1195.7
83.41	1315.0	1195.9
83.42	1326.0	1196.0
83.43	1361.0	1196.1
83.44	1334.0	1196.2
83.45	1332.0	1196.3
83.46	1408.0	1196.4
83.47	1391.0	1196.5
83.48	1368.0	1196.6
83.49	1373.0	1196.8
83.5	1372.0	1196.9
83.51	1375.0	1197.0
83.52	1407.0	1197.1
83.53	1406.0	1197.2
83.54	1409.0	1197.3
83.55	1400.0	1197.4
83.56	1401.0	1197.5
83.57	1431.0	1197.7
83.58	1419.0	1197.8
83.59	1443.0	1197.9
83.6	1466.0	1198.0
83.61	1485.0	1198.1
83.62	1496.0	1198.2
83.63	1524.0	1198.4
83.64	1513.0	1198.5
83.65	1547.0	1198.6
83.66	1533.0	1198.7
83.67	1537.0	1198.8
83.68	1531.0	1198.9
83.69	1591.0	1199.0
83.7	1599.0	1199.2
83.71	1581.0	1199.3
83.72	1632.0	1199.4
83.73	1599.0	1199.5
83.74	1639.0	1199.6
83.75	1661.0	1199.7
83.76	1669.0	1199.9
83.77	1701.0	1200.0
83.78	1743.0	1200.1
83.79	1762.0	1200.2
83.8	1794.0	1200.3
83.81	1801.0	1200.4
83.82	1770.0	1200.6
83.83	1743.0	1200.7
83.84	1794.0	1200.8
83.85	1865.0	1200.9
83.86	1855.0	1201.0
83.87	1866.0	1201.2
83.88	1863.0	1201.3
83.89	1901.0	1201.4
83.9	1859.0	1201.5
83.91	1863.0	1201.6
83.92	1863.0	1201.7
83.93	1825.0	1201.9
83.94	1816.0	1202.0
83.95	1806.0	1202.1
83.96	1786.0	1202.2
83.97	1790.0	1202.3
83.98	1773.0	1202.5
83.99	1719.0	1202.6
84.0	1723.0	1202.7
84.01	1712.0	1202.8
84.02	1749.0	1202.9
84.03	1743.0	1203.1
84.04	1739.0	1203.2
84.05	1683.0	1203.3
84.06	1694.0	1203.4
84.07	1715.0	1203.5
84.08	1689.0	1203.7
84.09	1666.0	1203.8
84.1	1640.0	1203.9
84.11	1657.0	1204.0
84.12	1671.0	1204.1
84.13	1621.0	1204.3
84.14	1592.0	1204.4
84.15	1600.0	1204.5
84.16	1626.0	1204.6
84.17	1629.0	1204.7
84.18	1644.0	1204.9
84.19	1655.0	1205.0
84.2	1587.0	1205.1
84.21	1559.0	1205.2
84.22	1550.0	1205.3
84.23	1551.0	1205.5
84.24	1537.0	1205.6
84.25	1511.0	1205.7
84.26	1460.0	1205.8
84.27	1457.0	1206.0
84.28	1451.0	1206.1
84.29	1423.0	1206.2
84.3	1435.0	1206.3
84.31	1481.0	1206.4
84.32	1400.0	1206.6
84.33	1372.0	1206.7
84.34	1368.0	1206.8
84.35	1393.0	1206.9
84.36	1373.0	1207.0
84.37	1352.0	1207.2
84.38	1376.0	1207.3
84.39	1402.0	1207.4
84.4	1370.0	1207.5
84.41	1383.0	1207.7
84.42	1380.0	1207.8
84.43	1338.0	1207.9
84.44	1342.0	1208.0
84.45	1334.0	1208.2
84.46	1279.0	1208.3
84.47	1255.0	1208.4
84.48	1273.0	1208.5
84.49	1290.0	1208.6
84.5	1295.0	1208.8
84.51	1348.0	1208.9
84.52	1348.0	1209.0
84.53	1335.0	1209.1
84.54	1336.0	1209.3
84.55	1311.0	1209.4
84.56	1315.0	1209.5
84.57	1342.0	1209.6
84.58	1314.0	1209.7
84.59	1286.0	1209.9
84.6	1300.0	1210.0
84.61	1281.0	1210.1
84.62	1294.0	1210.2
84.63	1291.0	1210.4
84.64	1261.0	1210.5
84.65	1308.0	1210.6
84.66	1307.0	1210.7
84.67	1280.0	1210.9
84.68	1297.0	1211.0
84.69	1304.0	1211.1
84.7	1302.0	1211.2
84.71	1303.0	1211.3
84.72	1296.0	1211.5
84.73	1288.0	1211.6
84.74	1302.0	1211.7
84.75	1319.0	1211.8
84.76	1327.0	1212.0
84.77	1317.0	1212.1
84.78	1269.0	1212.2
84.79	1261.0	1212.3
84.8	1291.0	1212.5
84.81	1276.0	1212.6
84.82	1295.0	1212.7
84.83	1311.0	1212.8
84.84	1312.0	1212.9
84.85	1322.0	1213.1
84.86	1299.0	1213.2
84.87	1279.0	1213.3
84.88	1268.0	1213.4
84.89	1269.0	1213.6
84.9	1292.0	1213.7
84.91	1323.0	1213.8
84.92	1323.0	1213.9
84.93	1321.0	1214.0
84.94	1321.0	1214.2
84.95	1298.0	1214.3
84.96	1316.0	1214.4
84.97	1313.0	1214.5
84.98	1330.0	1214.7
84.99	1338.0	1214.8
85.0	1295.0	1214.9
85.01	1294.0	1215.0
85.02	1297.0	1215.2
85.03	1317.0	1215.3
85.04	1316.0	1215.4
85.05	1317.0	1215.5
85.06	1304.0	1215.6
85.07	1311.0	1215.8
85.08	1332.0	1215.9
85.09	1334.0	1216.0
85.1	1309.0	1216.1
85.11	1277.0	1216.3
85.12	1312.0	1216.4
85.13	1352.0	1216.5
85.14	1358.0	1216.6
85.15	1381.0	1216.7
85.16	1339.0	1216.9
85.17	1321.0	1217.0
85.18	1353.0	1217.1
85.19	1383.0	1217.2
85.2	1373.0	1217.4
85.21	1347.0	1217.5
85.22	1362.0	1217.6
85.23	1342.0	1217.7
85.24	1334.0	1217.8
85.25	1411.0	1218.0
85.26	1451.0	1218.1
85.27	1417.0	1218.2
85.28	1394.0	1218.3
85.29	1390.0	1218.4
85.3	1388.0	1218.6
85.31	1403.0	1218.7
85.32	1422.0	1218.8
85.33	1419.0	1218.9
85.34	1384.0	1219.1
85.35	1435.0	1219.2
85.36	1436.0	1219.3
85.37	1442.0	1219.4
85.38	1422.0	1219.5
85.39	1449.0	1219.7
85.4	1442.0	1219.8
85.41	1447.0	1219.9
85.42	1498.0	1220.0
85.43	1568.0	1220.1
85.44	1555.0	1220.3
85.45	1523.0	1220.4
85.46	1529.0	1220.5
85.47	1548.0	1220.6
85.48	1533.0	1220.7
85.49	1507.0	1220.9
85.5	1488.0	1221.0
85.51	1509.0	1221.1
85.52	1538.0	1221.2
85.53	1561.0	1221.3
85.54	1563.0	1221.5
85.55	1555.0	1221.6
85.56	1577.0	1221.7
85.57	1623.0	1221.8
85.58	1599.0	1221.9
85.59	1606.0	1222.0
85.6	1577.0	1222.2
85.61	1523.0	1222.3
85.62	1528.0	1222.4
85.63	1552.0	1222.5
85.64	1574.0	1222.6
85.65	1563.0	1222.8
85.66	1549.0	1222.9
85.67	1557.0	1223.0
85.68	1562.0	1223.1
85.69	1547.0	1223.2
85.7	1519.0	1223.3
85.71	1514.0	1223.5
85.72	1549.0	1223.6
85.73	1540.0	1223.7
85.74	1537.0	1223.8
85.75	1547.0	1223.9
85.76	1489.0	1224.0
85.77	1470.0	1224.2
85.78	1479.0	1224.3
85.79	1469.0	1224.4
85.8	1445.0	1224.5
85.81	1437.0	1224.6
85.82	1430.0	1224.7
85.83	1463.0	1224.9
85.84	1485.0	1225.0
85.85	1456.0	1225.1
85.86	1442.0	1225.2
85.87	1445.0	1225.3
85.88	1443.0	1225.4
85.89	1420.0	1225.5
85.9	1405.0	1225.7
85.91	1407.0	1225.8
85.92	1406.0	1225.9
85.93	1403.0	1226.0
85.94	1394.0	1226.1
85.95	1392.0	1226.2
85.96	1407.0	1226.3
85.97	1421.0	1226.5
85.98	1416.0	1226.6
85.99	1386.0	1226.7
86.0	1368.0	1226.8
86.01	1367.0	1226.9
86.02	1374.0	1227.0
86.03	1370.0	1227.1
86.04	1326.0	1227.3
86.05	1311.0	1227.4
86.06	1318.0	1227.5
86.07	1383.0	1227.6
86.08	1353.0	1227.7
86.09	1328.0	1227.8
86.1	1378.0	1227.9
86.11	1366.0	1228.0
86.12	1299.0	1228.2
86.13	1300.0	1228.3
86.14	1349.0	1228.4
86.15	1340.0	1228.5
86.16	1320.0	1228.6
86.17	1321.0	1228.7
86.18	1324.0	1228.8
86.19	1333.0	1228.9
86.2	1300.0	1229.0
86.21	1295.0	1229.2
86.22	1306.0	1229.3
86.23	1314.0	1229.4
86.24	1340.0	1229.5
86.25	1297.0	1229.6
86.26	1315.0	1229.7
86.27	1326.0	1229.8
86.28	1311.0	1229.9
86.29	1343.0	1230.0
86.3	1364.0	1230.1
86.31	1331.0	1230.3
86.32	1332.0	1230.4
86.33	1326.0	1230.5
86.34	1275.0	1230.6
86.35	1311.0	1230.7
86.36	1334.0	1230.8
86.37	1325.0	1230.9
86.38	1336.0	1231.0
86.39	1343.0	1231.1
86.4	1338.0	1231.2
86.41	1306.0	1231.3
86.42	1285.0	1231.5
86.43	1305.0	1231.6
86.44	1312.0	1231.7
86.45	1321.0	1231.8
86.46	1308.0	1231.9
86.47	1298.0	1232.0
86.48	1319.0	1232.1
86.49	1346.0	1232.2
86.5	1337.0	1232.3
86.51	1329.0	1232.4
86.52	1358.0	1232.5
86.53	1370.0	1232.6
86.54	1333.0	1232.8
86.55	1316.0	1232.9
86.56	1328.0	1233.0
86.57	1309.0	1233.1
86.58	1308.0	1233.2
86.59	1323.0	1233.3
86.6	1318.0	1233.4
86.61	1343.0	1233.5
86.62	1308.0	1233.6
86.63	1292.0	1233.7
86.64	1311.0	1233.8
86.65	1351.0	1233.9
86.66	1328.0	1234.0
86.67	1344.0	1234.1
86.68	1325.0	1234.3
86.69	1344.0	1234.4
86.7	1347.0	1234.5
86.71	1352.0	1234.6
86.72	1358.0	1234.7
86.73	1376.0	1234.8
86.74	1365.0	1234.9
86.75	1314.0	1235.0
86.76	1313.0	1235.1
86.77	1343.0	1235.2
86.78	1375.0	1235.3
86.79	1365.0	1235.4
86.8	1355.0	1235.5
86.81	1334.0	1235.6
86.82	1357.0	1235.7
86.83	1369.0	1235.8
86.84	1365.0	1235.9
86.85	1372.0	1236.0
86.86	1364.0	1236.2
86.87	1374.0	1236.3
86.88	1391.0	1236.4
86.89	1396.0	1236.5
86.9	1366.0	1236.6
86.91	1396.0	1236.7
86.92	1420.0	1236.8
86.93	1413.0	1236.9
86.94	1390.0	1237.0
86.95	1365.0	1237.1
86.96	1361.0	1237.2
86.97	1380.0	1237.3
86.98	1394.0	1237.4
86.99	1376.0	1237.5
87.0	1351.0	1237.6
87.01	1384.0	1237.7
87.02	1344.0	1237.8
87.03	1302.0	1237.9
87.04	1315.0	1238.0
87.05	1362.0	1238.1
87.06	1365.0	1238.2
87.07	1368.0	1238.3
87.08	1385.0	1238.4
87.09	1414.0	1238.6
87.1	1379.0	1238.7
87.11	1370.0	1238.8
87.12	1363.0	1238.9
87.13	1332.0	1239.0
87.14	1329.0	1239.1
87.15	1319.0	1239.2
87.16	1300.0	1239.3
87.17	1310.0	1239.4
87.18	1346.0	1239.5
87.19	1354.0	1239.6
87.2	1350.0	1239.7
87.21	1339.0	1239.8
87.22	1333.0	1239.9
87.23	1332.0	1240.0
87.24	1357.0	1240.1
87.25	1338.0	1240.2
87.26	1344.0	1240.3
87.27	1324.0	1240.4
87.28	1352.0	1240.5
87.29	1339.0	1240.6
87.3	1277.0	1240.7
87.31	1276.0	1240.8
87.32	1324.0	1240.9
87.33	1322.0	1241.0
87.34	1333.0	1241.1
87.35	1325.0	1241.2
87.36	1311.0	1241.3
87.37	1312.0	1241.4
87.38	1312.0	1241.5
87.39	1323.0	1241.6
87.4	1346.0	1241.8
87.41	1357.0	1241.9
87.42	1351.0	1242.0
87.43	1307.0	1242.1
87.44	1301.0	1242.2
87.45	1327.0	1242.3
87.46	1312.0	1242.4
87.47	1300.0	1242.5
87.48	1286.0	1242.6
87.49	1290.0	1242.7
87.5	1327.0	1242.8
87.51	1335.0	1242.9
87.52	1338.0	1243.0
87.53	1323.0	1243.1
87.54	1316.0	1243.2
87.55	1335.0	1243.3
87.56	1314.0	1243.4
87.57	1293.0	1243.5
87.58	1291.0	1243.6
87.59	1304.0	1243.7
87.6	1301.0	1243.8
87.61	1285.0	1243.9
87.62	1306.0	1244.0
87.63	1299.0	1244.1
87.64	1289.0	1244.2
87.65	1277.0	1244.3
87.66	1298.0	1244.4
87.67	1313.0	1244.5
87.68	1349.0	1244.6
87.69	1344.0	1244.7
87.7	1337.0	1244.8
87.71	1294.0	1244.9
87.72	1261.0	1245.0
87.73	1288.0	1245.1
87.74	1302.0	1245.2
87.75	1294.0	1245.3
87.76	1285.0	1245.4
87.77	1262.0	1245.5
87.78	1262.0	1245.7
87.79	1270.0	1245.8
87.8	1293.0	1245.9
87.81	1308.0	1246.0
87.82	1298.0	1246.1
87.83	1302.0	1246.2
87.84	1288.0	1246.3
87.85	1286.0	1246.4
87.86	1293.0	1246.5
87.87	1299.0	1246.6
87.88	1271.0	1246.7
87.89	1273.0	1246.8
87.9	1288.0	1246.9
87.91	1293.0	1247.0
87.92	1290.0	1247.1
87.93	1301.0	1247.2
87.94	1306.0	1247.3
87.95	1297.0	1247.4
87.96	1309.0	1247.5
87.97	1288.0	1247.6
87.98	1279.0	1247.7
87.99	1289.0	1247.8
88.0	1309.0	1247.9
88.01	1328.0	1248.0
88.02	1342.0	1248.1
88.03	1349.0	1248.2
88.04	1315.0	1248.3
88.05	1284.0	1248.4
88.06	1274.0	1248.5
88.07	1271.0	1248.6
88.08	1279.0	1248.7
88.09	1304.0	1248.8
88.1	1279.0	1248.9
88.11	1286.0	1249.0
88.12	1281.0	1249.2
88.13	1290.0	1249.3
88.14	1319.0	1249.4
88.15	1302.0	1249.5
88.16	1344.0	1249.6
88.17	1346.0	1249.7
88.18	1313.0	1249.8
88.19	1291.0	1249.9
88.2	1288.0	1250.0
88.21	1291.0	1250.1
88.22	1284.0	1250.2
88.23	1280.0	1250.3
88.24	1295.0	1250.4
88.25	1293.0	1250.5
88.26	1317.0	1250.6
88.27	1342.0	1250.7
88.28	1338.0	1250.8
88.29	1295.0	1250.9
88.3	1285.0	1251.0
88.31	1283.0	1251.1
88.32	1313.0	1251.2
88.33	1323.0	1251.3
88.34	1305.0	1251.4
88.35	1307.0	1251.5
88.36	1314.0	1251.6
88.37	1324.0	1251.8
88.38	1311.0	1251.9
88.39	1319.0	1252.0
88.4	1281.0	1252.1
88.41	1294.0	1252.2
88.42	1306.0	1252.3
88.43	1282.0	1252.4
88.44	1275.0	1252.5
88.45	1283.0	1252.6
88.46	1280.0	1252.7
88.47	1296.0	1252.8
88.48	1296.0	1252.9
88.49	1276.0	1253.0
88.5	1264.0	1253.1
88.51	1306.0	1253.2
88.52	1302.0	1253.3
88.53	1274.0	1253.4
88.54	1268.0	1253.5
88.55	1288.0	1253.6
88.56	1298.0	1253.8
88.57	1292.0	1253.9
88.58	1265.0	1254.0
88.59	1275.0	1254.1
88.6	1292.0	1254.2
88.61	1294.0	1254.3
88.62	1320.0	1254.4
88.63	1332.0	1254.5
88.64	1320.0	1254.6
88.65	1299.0	1254.7
88.66	1303.0	1254.8
88.67	1303.0	1254.9
88.68	1289.0	1255.0
88.69	1322.0	1255.1
88.7	1363.0	1255.2
88.71	1362.0	1255.3
88.72	1329.0	1255.5
88.73	1291.0	1255.6
88.74	1283.0	1255.7
88.75	1300.0	1255.8
88.76	1329.0	1255.9
88.77	1323.0	1256.0
88.78	1323.0	1256.1
88.79	1318.0	1256.2
88.8	1277.0	1256.3
88.81	1283.0	1256.4
88.82	1313.0	1256.5
88.83	1302.0	1256.6
88.84	1281.0	1256.7
88.85	1289.0	1256.9
88.86	1310.0	1257.0
88.87	1303.0	1257.1
88.88	1302.0	1257.2
88.89	1318.0	1257.3
88.9	1312.0	1257.4
88.91	1284.0	1257.5
88.92	1259.0	1257.6
88.93	1273.0	1257.7
88.94	1271.0	1257.8
88.95	1243.0	1257.9
88.96	1262.0	1258.1
88.97	1282.0	1258.2
88.98	1319.0	1258.3
88.99	1315.0	1258.4
89.0	1278.0	1258.5
89.01	1263.0	1258.6
89.02	1281.0	1258.7
89.03	1315.0	1258.8
89.04	1298.0	1258.9
89.05	1285.0	1259.0
89.06	1281.0	1259.1
89.07	1285.0	1259.3
89.08	1306.0	1259.4
89.09	1326.0	1259.5
89.1	1327.0	1259.6
89.11	1294.0	1259.7
89.12	1262.0	1259.8
89.13	1245.0	1259.9
89.14	1287.0	1260.0
89.15	1339.0	1260.1
89.16	1313.0	1260.3
89.17	1324.0	1260.4
89.18	1325.0	1260.5
89.19	1293.0	1260.6
89.2	1294.0	1260.7
89.21	1289.0	1260.8
89.22	1308.0	1260.9
89.23	1330.0	1261.0
89.24	1326.0	1261.2
89.25	1323.0	1261.3
89.26	1309.0	1261.4
89.27	1309.0	1261.5
89.28	1300.0	1261.6
89.29	1310.0	1261.7
89.3	1333.0	1261.8
89.31	1320.0	1261.9
89.32	1315.0	1262.1
89.33	1303.0	1262.2
89.34	1294.0	1262.3
89.35	1311.0	1262.4
89.36	1335.0	1262.5
89.37	1331.0	1262.6
89.38	1326.0	1262.7
89.39	1337.0	1262.9
89.4	1329.0	1263.0
89.41	1320.0	1263.1
89.42	1312.0	1263.2
89.43	1311.0	1263.3
89.44	1331.0	1263.4
89.45	1315.0	1263.5
89.46	1311.0	1263.7
89.47	1326.0	1263.8
89.48	1332.0	1263.9
89.49	1332.0	1264.0
89.5	1341.0	1264.1
89.51	1342.0	1264.2
89.52	1340.0	1264.4
89.53	1325.0	1264.5
89.54	1319.0	1264.6
89.55	1307.0	1264.7
89.56	1316.0	1264.8
89.57	1313.0	1264.9
89.58	1295.0	1265.1
89.59	1332.0	1265.2
89.6	1351.0	1265.3
89.61	1331.0	1265.4
89.62	1329.0	1265.5
89.63	1331.0	1265.7
89.64	1341.0	1265.8
89.65	1328.0	1265.9
89.66	1301.0	1266.0
89.67	1295.0	1266.1
89.68	1300.0	1266.2
89.69	1284.0	1266.4
89.7	1297.0	1266.5
89.71	1306.0	1266.6
89.72	1311.0	1266.7
89.73	1338.0	1266.8
89.74	1353.0	1267.0
89.75	1341.0	1267.1
89.76	1335.0	1267.2
89.77	1326.0	1267.3
89.78	1302.0	1267.4
89.79	1330.0	1267.6
89.8	1355.0	1267.7
89.81	1322.0	1267.8
89.82	1307.0	1267.9
89.83	1277.0	1268.0
89.84	1269.0	1268.2
89.85	1294.0	1268.3
89.86	1284.0	1268.4
89.87	1253.0	1268.5
89.88	1257.0	1268.7
89.89	1290.0	1268.8
89.9	1331.0	1268.9
89.91	1325.0	1269.0
89.92	1287.0	1269.1
89.93	1287.0	1269.3
89.94	1311.0	1269.4
89.95	1321.0	1269.5
89.96	1331.0	1269.6
89.97	1344.0	1269.8
89.98	1340.0	1269.9
89.99	1333.0	1270.0
90.0	1321.0	1270.1
90.01	1299.0	1270.3
90.02	1305.0	1270.4
90.03	1307.0	1270.5
90.04	1295.0	1270.6
90.05	1325.0	1270.8
90.06	1358.0	1270.9
90.07	1365.0	1271.0
90.08	1356.0	1271.1
90.09	1337.0	1271.3
90.1	1330.0	1271.4
90.11	1337.0	1271.5
90.12	1325.0	1271.6
90.13	1294.0	1271.8
90.14	1282.0	1271.9
90.15	1296.0	1272.0
90.16	1329.0	1272.1
90.17	1360.0	1272.3
90.18	1337.0	1272.4
90.19	1288.0	1272.5
90.2	1302.0	1272.7
90.21	1344.0	1272.8
90.22	1318.0	1272.9
90.23	1317.0	1273.0
90.24	1319.0	1273.2
90.25	1323.0	1273.3
90.26	1317.0	1273.4
90.27	1294.0	1273.5
90.28	1293.0	1273.7
90.29	1279.0	1273.8
90.3	1285.0	1273.9
90.31	1290.0	1274.1
90.32	1293.0	1274.2
90.33	1303.0	1274.3
90.34	1307.0	1274.5
90.35	1322.0	1274.6
90.36	1324.0	1274.7
90.37	1316.0	1274.8
90.38	1308.0	1275.0
90.39	1317.0	1275.1
90.4	1327.0	1275.2
90.41	1316.0	1275.4
90.42	1314.0	1275.5
90.43	1310.0	1275.6
90.44	1309.0	1275.8
90.45	1321.0	1275.9
90.46	1278.0	1276.0
90.47	1281.0	1276.1
90.48	1326.0	1276.3
90.49	1327.0	1276.4
90.5	1325.0	1276.5
90.51	1322.0	1276.7
90.52	1345.0	1276.8
90.53	1364.0	1276.9
90.54	1341.0	1277.1
90.55	1333.0	1277.2
90.56	1360.0	1277.3
90.57	1354.0	1277.5
90.58	1331.0	1277.6
90.59	1331.0	1277.7
90.6	1350.0	1277.9
90.61	1361.0	1278.0
90.62	1331.0	1278.1
90.63	1335.0	1278.3
90.64	1349.0	1278.4
90.65	1340.0	1278.5
90.66	1336.0	1278.7
90.67	1361.0	1278.8
90.68	1354.0	1278.9
90.69	1345.0	1279.1
90.7	1358.0	1279.2
90.71	1332.0	1279.3
90.72	1321.0	1279.5
90.73	1307.0	1279.6
90.74	1314.0	1279.7
90.75	1314.0	1279.9
90.76	1292.0	1280.0
90.77	1297.0	1280.1
90.78	1314.0	1280.3
90.79	1334.0	1280.4
90.8	1348.0	1280.5
90.81	1372.0	1280.7
90.82	1363.0	1280.8
90.83	1345.0	1281.0
90.84	1313.0	1281.1
90.85	1308.0	1281.2
90.86	1340.0	1281.4
90.87	1332.0	1281.5
90.88	1321.0	1281.6
90.89	1318.0	1281.8
90.9	1346.0	1281.9
90.91	1360.0	1282.0
90.92	1350.0	1282.2
90.93	1312.0	1282.3
90.94	1292.0	1282.5
90.95	1344.0	1282.6
90.96	1340.0	1282.7
90.97	1288.0	1282.9
90.98	1278.0	1283.0
90.99	1309.0	1283.1
91.0	1327.0	1283.3
91.01	1325.0	1283.4
91.02	1321.0	1283.5
91.03	1321.0	1283.7
91.04	1321.0	1283.8
91.05	1299.0	1284.0
91.06	1291.0	1284.1
91.07	1337.0	1284.2
91.08	1367.0	1284.4
91.09	1347.0	1284.5
91.1	1327.0	1284.7
91.11	1329.0	1284.8
91.12	1340.0	1284.9
91.13	1302.0	1285.1
91.14	1268.0	1285.2
91.15	1283.0	1285.3
91.16	1302.0	1285.5
91.17	1312.0	1285.6
91.18	1313.0	1285.8
91.19	1331.0	1285.9
91.2	1363.0	1286.0
91.21	1372.0	1286.2
91.22	1347.0	1286.3
91.23	1308.0	1286.5
91.24	1305.0	1286.6
91.25	1300.0	1286.7
91.26	1293.0	1286.9
91.27	1315.0	1287.0
91.28	1346.0	1287.2
91.29	1353.0	1287.3
91.3	1326.0	1287.4
91.31	1317.0	1287.6
91.32	1334.0	1287.7
91.33	1334.0	1287.8
91.34	1317.0	1288.0
91.35	1332.0	1288.1
91.36	1363.0	1288.3
91.37	1381.0	1288.4
91.38	1363.0	1288.6
91.39	1350.0	1288.7
91.4	1349.0	1288.8
91.41	1318.0	1289.0
91.42	1314.0	1289.1
91.43	1342.0	1289.3
91.44	1356.0	1289.4
91.45	1355.0	1289.5
91.46	1342.0	1289.7
91.47	1323.0	1289.8
91.48	1328.0	1290.0
91.49	1335.0	1290.1
91.5	1313.0	1290.2
91.51	1307.0	1290.4
91.52	1317.0	1290.5
91.53	1344.0	1290.7
91.54	1369.0	1290.8
91.55	1362.0	1290.9
91.56	1352.0	1291.1
91.57	1360.0	1291.2
91.58	1362.0	1291.4
91.59	1342.0	1291.5
91.6	1343.0	1291.7
91.61	1355.0	1291.8
91.62	1363.0	1291.9
91.63	1337.0	1292.1
91.64	1307.0	1292.2
91.65	1327.0	1292.4
91.66	1354.0	1292.5
91.67	1376.0	1292.6
91.68	1373.0	1292.8
91.69	1367.0	1292.9
91.7	1348.0	1293.1
91.71	1318.0	1293.2
91.72	1315.0	1293.4
91.73	1334.0	1293.5
91.74	1376.0	1293.6
91.75	1376.0	1293.8
91.76	1344.0	1293.9
91.77	1337.0	1294.1
91.78	1351.0	1294.2
91.79	1359.0	1294.3
91.8	1364.0	1294.5
91.81	1366.0	1294.6
91.82	1335.0	1294.8
91.83	1334.0	1294.9
91.84	1356.0	1295.1
91.85	1350.0	1295.2
91.86	1342.0	1295.3
91.87	1344.0	1295.5
91.88	1365.0	1295.6
91.89	1389.0	1295.8
91.9	1367.0	1295.9
91.91	1324.0	1296.1
91.92	1300.0	1296.2
91.93	1313.0	1296.3
91.94	1336.0	1296.5
91.95	1327.0	1296.6
91.96	1320.0	1296.8
91.97	1361.0	1296.9
91.98	1364.0	1297.1
91.99	1359.0	1297.2
92.0	1401.0	1297.3
92.01	1408.0	1297.5
92.02	1367.0	1297.6
92.03	1331.0	1297.8
92.04	1310.0	1297.9
92.05	1318.0	1298.1
92.06	1341.0	1298.2
92.07	1339.0	1298.3
92.08	1344.0	1298.5
92.09	1361.0	1298.6
92.1	1367.0	1298.8
92.11	1347.0	1298.9
92.12	1318.0	1299.1
92.13	1305.0	1299.2
92.14	1323.0	1299.3
92.15	1329.0	1299.5
92.16	1328.0	1299.6
92.17	1349.0	1299.8
92.18	1375.0	1299.9
92.19	1397.0	1300.1
92.2	1382.0	1300.2
92.21	1353.0	1300.3
92.22	1359.0	1300.5
92.23	1346.0	1300.6
92.24	1322.0	1300.8
92.25	1315.0	1300.9
92.26	1335.0	1301.1
92.27	1366.0	1301.2
92.28	1356.0	1301.3
92.29	1337.0	1301.5
92.3	1371.0	1301.6
92.31	1393.0	1301.8
92.32	1372.0	1301.9
92.33	1371.0	1302.1
92.34	1370.0	1302.2
92.35	1350.0	1302.4
92.36	1352.0	1302.5
92.37	1384.0	1302.6
92.38	1390.0	1302.8
92.39	1370.0	1302.9
92.4	1366.0	1303.1
92.41	1370.0	1303.2
92.42	1358.0	1303.4
92.43	1333.0	1303.5
92.44	1346.0	1303.6
92.45	1360.0	1303.8
92.46	1365.0	1303.9
92.47	1356.0	1304.1
92.48	1354.0	1304.2
92.49	1344.0	1304.4
92.5	1341.0	1304.5
92.51	1365.0	1304.6
92.52	1373.0	1304.8
92.53	1373.0	1304.9
92.54	1367.0	1305.1
92.55	1329.0	1305.2
92.56	1348.0	1305.4
92.57	1390.0	1305.5
92.58	1377.0	1305.6
92.59	1374.0	1305.8
92.6	1375.0	1305.9
92.61	1356.0	1306.1
92.62	1353.0	1306.2
92.63	1343.0	1306.4
92.64	1349.0	1306.5
92.65	1362.0	1306.6
92.66	1364.0	1306.8
92.67	1383.0	1306.9
92.68	1395.0	1307.1
92.69	1347.0	1307.2
92.7	1287.0	1307.4
92.71	1305.0	1307.5
92.72	1326.0	1307.6
92.73	1339.0	1307.8
92.74	1359.0	1307.9
92.75	1362.0	1308.1
92.76	1347.0	1308.2
92.77	1325.0	1308.3
92.78	1337.0	1308.5
92.79	1344.0	1308.6
92.8	1366.0	1308.8
92.81	1348.0	1308.9
92.82	1362.0	1309.1
92.83	1400.0	1309.2
92.84	1404.0	1309.3
92.85	1378.0	1309.5
92.86	1366.0	1309.6
92.87	1347.0	1309.8
92.88	1329.0	1309.9
92.89	1347.0	1310.1
92.9	1349.0	1310.2
92.91	1332.0	1310.3
92.92	1330.0	1310.5
92.93	1337.0	1310.6
92.94	1335.0	1310.8
92.95	1341.0	1310.9
92.96	1345.0	1311.0
92.97	1348.0	1311.2
92.98	1356.0	1311.3
92.99	1369.0	1311.5
93.0	1352.0	1311.6
93.01	1354.0	1311.7
93.02	1329.0	1311.9
93.03	1337.0	1312.0
93.04	1388.0	1312.2
93.05	1378.0	1312.3
93.06	1341.0	1312.5
93.07	1359.0	1312.6
93.08	1387.0	1312.7
93.09	1417.0	1312.9
93.1	1448.0	1313.0
93.11	1435.0	1313.2
93.12	1383.0	1313.3
93.13	1361.0	1313.4
93.14	1366.0	1313.6
93.15	1374.0	1313.7
93.16	1398.0	1313.9
93.17	1409.0	1314.0
93.18	1393.0	1314.1
93.19	1353.0	1314.3
93.2	1335.0	1314.4
93.21	1373.0	1314.6
93.22	1401.0	1314.7
93.23	1400.0	1314.8
93.24	1363.0	1315.0
93.25	1379.0	1315.1
93.26	1409.0	1315.3
93.27	1403.0	1315.4
93.28	1381.0	1315.5
93.29	1376.0	1315.7
93.3	1376.0	1315.8
93.31	1367.0	1316.0
93.32	1364.0	1316.1
93.33	1382.0	1316.2
93.34	1400.0	1316.4
93.35	1386.0	1316.5
93.36	1379.0	1316.7
93.37	1386.0	1316.8
93.38	1412.0	1316.9
93.39	1429.0	1317.1
93.4	1402.0	1317.2
93.41	1395.0	1317.3
93.42	1414.0	1317.5
93.43	1410.0	1317.6
93.44	1401.0	1317.8
93.45	1381.0	1317.9
93.46	1405.0	1318.0
93.47	1404.0	1318.2
93.48	1411.0	1318.3
93.49	1414.0	1318.4
93.5	1365.0	1318.6
93.51	1369.0	1318.7
93.52	1409.0	1318.9
93.53	1431.0	1319.0
93.54	1417.0	1319.1
93.55	1412.0	1319.3
93.56	1438.0	1319.4
93.57	1440.0	1319.5
93.58	1444.0	1319.7
93.59	1434.0	1319.8
93.6	1412.0	1320.0
93.61	1380.0	1320.1
93.62	1347.0	1320.2
93.63	1386.0	1320.4
93.64	1418.0	1320.5
93.65	1393.0	1320.6
93.66	1349.0	1320.8
93.67	1378.0	1320.9
93.68	1424.0	1321.0
93.69	1425.0	1321.2
93.7	1401.0	1321.3
93.71	1366.0	1321.5
93.72	1371.0	1321.6
93.73	1399.0	1321.7
93.74	1448.0	1321.9
93.75	1476.0	1322.0
93.76	1446.0	1322.1
93.77	1419.0	1322.3
93.78	1419.0	1322.4
93.79	1410.0	1322.5
93.8	1389.0	1322.7
93.81	1384.0	1322.8
93.82	1434.0	1322.9
93.83	1442.0	1323.1
93.84	1425.0	1323.2
93.85	1437.0	1323.3
93.86	1464.0	1323.5
93.87	1432.0	1323.6
93.88	1394.0	1323.7
93.89	1405.0	1323.9
93.9	1422.0	1324.0
93.91	1406.0	1324.1
93.92	1399.0	1324.3
93.93	1414.0	1324.4
93.94	1428.0	1324.5
93.95	1445.0	1324.7
93.96	1461.0	1324.8
93.97	1446.0	1324.9
93.98	1454.0	1325.1
93.99	1485.0	1325.2
94.0	1498.0	1325.3
94.01	1500.0	1325.5
94.02	1485.0	1325.6
94.03	1427.0	1325.7
94.04	1414.0	1325.9
94.05	1441.0	1326.0
94.06	1484.0	1326.1
94.07	1453.0	1326.3
94.08	1417.0	1326.4
94.09	1413.0	1326.5
94.1	1372.0	1326.7
94.11	1400.0	1326.8
94.12	1434.0	1326.9
94.13	1432.0	1327.0
94.14	1432.0	1327.2
94.15	1456.0	1327.3
94.16	1467.0	1327.4
94.17	1460.0	1327.6
94.18	1495.0	1327.7
94.19	1503.0	1327.8
94.2	1491.0	1328.0
94.21	1497.0	1328.1
94.22	1506.0	1328.2
94.23	1453.0	1328.3
94.24	1450.0	1328.5
94.25	1485.0	1328.6
94.26	1486.0	1328.7
94.27	1480.0	1328.9
94.28	1488.0	1329.0
94.29	1482.0	1329.1
94.3	1511.0	1329.2
94.31	1509.0	1329.4
94.32	1522.0	1329.5
94.33	1524.0	1329.6
94.34	1473.0	1329.7
94.35	1467.0	1329.9
94.36	1478.0	1330.0
94.37	1517.0	1330.1
94.38	1512.0	1330.3
94.39	1465.0	1330.4
94.4	1485.0	1330.5
94.41	1504.0	1330.6
94.42	1535.0	1330.8
94.43	1555.0	1330.9
94.44	1551.0	1331.0
94.45	1496.0	1331.1
94.46	1463.0	1331.3
94.47	1469.0	1331.4
94.48	1530.0	1331.5
94.49	1538.0	1331.6
94.5	1554.0	1331.8
94.51	1551.0	1331.9
94.52	1532.0	1332.0
94.53	1506.0	1332.1
94.54	1524.0	1332.3
94.55	1514.0	1332.4
94.56	1545.0	1332.5
94.57	1576.0	1332.6
94.58	1586.0	1332.8
94.59	1590.0	1332.9
94.6	1590.0	1333.0
94.61	1570.0	1333.1
94.62	1556.0	1333.3
94.63	1571.0	1333.4
94.64	1539.0	1333.5
94.65	1536.0	1333.6
94.66	1539.0	1333.7
94.67	1540.0	1333.9
94.68	1551.0	1334.0
94.69	1526.0	1334.1
94.7	1536.0	1334.2
94.71	1565.0	1334.4
94.72	1599.0	1334.5
94.73	1606.0	1334.6
94.74	1601.0	1334.7
94.75	1578.0	1334.8
94.76	1587.0	1335.0
94.77	1605.0	1335.1
94.78	1618.0	1335.2
94.79	1621.0	1335.3
94.8	1636.0	1335.4
94.81	1626.0	1335.6
94.82	1609.0	1335.7
94.83	1602.0	1335.8
94.84	1619.0	1335.9
94.85	1603.0	1336.0
94.86	1571.0	1336.1
94.87	1577.0	1336.3
94.88	1600.0	1336.4
94.89	1572.0	1336.5
94.9	1594.0	1336.6
94.91	1611.0	1336.7
94.92	1608.0	1336.9
94.93	1630.0	1337.0
94.94	1648.0	1337.1
94.95	1594.0	1337.2
94.96	1573.0	1337.3
94.97	1582.0	1337.4
94.98	1596.0	1337.6
94.99	1579.0	1337.7
95.0	1592.0	1337.8
95.01	1619.0	1337.9
95.02	1597.0	1338.0
95.03	1562.0	1338.1
95.04	1534.0	1338.3
95.05	1524.0	1338.4
95.06	1567.0	1338.5
95.07	1579.0	1338.6
95.08	1553.0	1338.7
95.09	1557.0	1338.8
95.1	1557.0	1338.9
95.11	1570.0	1339.1
95.12	1530.0	1339.2
95.13	1523.0	1339.3
95.14	1566.0	1339.4
95.15	1556.0	1339.5
95.16	1528.0	1339.6
95.17	1503.0	1339.7
95.18	1513.0	1339.8
95.19	1521.0	1340.0
95.2	1494.0	1340.1
95.21	1469.0	1340.2
95.22	1476.0	1340.3
95.23	1503.0	1340.4
95.24	1497.0	1340.5
95.25	1507.0	1340.6
95.26	1510.0	1340.7
95.27	1500.0	1340.8
95.28	1478.0	1340.9
95.29	1453.0	1341.1
95.3	1430.0	1341.2
95.31	1440.0	1341.3
95.32	1478.0	1341.4
95.33	1478.0	1341.5
95.34	1469.0	1341.6
95.35	1492.0	1341.7
95.36	1465.0	1341.8
95.37	1494.0	1341.9
95.38	1498.0	1342.0
95.39	1469.0	1342.1
95.4	1447.0	1342.3
95.41	1428.0	1342.4
95.42	1415.0	1342.5
95.43	1409.0	1342.6
95.44	1411.0	1342.7
95.45	1414.0	1342.8
95.46	1435.0	1342.9
95.47	1460.0	1343.0
95.48	1434.0	1343.1
95.49	1419.0	1343.2
95.5	1410.0	1343.3
95.51	1407.0	1343.4
95.52	1446.0	1343.5
95.53	1409.0	1343.6
95.54	1383.0	1343.7
95.55	1426.0	1343.8
95.56	1464.0	1343.9
95.57	1457.0	1344.0
95.58	1404.0	1344.1
95.59	1409.0	1344.2
95.6	1419.0	1344.3
95.61	1433.0	1344.4
95.62	1385.0	1344.5
95.63	1398.0	1344.7
95.64	1404.0	1344.8
95.65	1422.0	1344.9
95.66	1408.0	1345.0
95.67	1383.0	1345.1
95.68	1371.0	1345.2
95.69	1401.0	1345.3
95.7	1388.0	1345.4
95.71	1408.0	1345.5
95.72	1393.0	1345.6
95.73	1386.0	1345.7
95.74	1374.0	1345.8
95.75	1406.0	1345.9
95.76	1431.0	1346.0
95.77	1404.0	1346.0
95.78	1389.0	1346.1
95.79	1398.0	1346.2
95.8	1431.0	1346.3
95.81	1440.0	1346.4
95.82	1439.0	1346.5
95.83	1441.0	1346.6
95.84	1435.0	1346.7
95.85	1440.0	1346.8
95.86	1419.0	1346.9
95.87	1419.0	1347.0
95.88	1446.0	1347.1
95.89	1458.0	1347.2
95.9	1443.0	1347.3
95.91	1419.0	1347.4
95.92	1416.0	1347.5
95.93	1428.0	1347.6
95.94	1348.0	1347.7
95.95	1371.0	1347.8
95.96	1393.0	1347.9
95.97	1412.0	1348.0
95.98	1439.0	1348.1
95.99	1442.0	1348.1
96.0	1431.0	1348.2
96.01	1376.0	1348.3
96.02	1383.0	1348.4
96.03	1401.0	1348.5
96.04	1399.0	1348.6
96.05	1409.0	1348.7
96.06	1403.0	1348.8
96.07	1379.0	1348.9
96.08	1375.0	1349.0
96.09	1365.0	1349.1
96.1	1349.0	1349.1
96.11	1346.0	1349.2
96.12	1380.0	1349.3
96.13	1416.0	1349.4
96.14	1397.0	1349.5
96.15	1381.0	1349.6
96.16	1394.0	1349.7
96.17	1389.0	1349.8
96.18	1432.0	1349.8
96.19	1464.0	1349.9
96.2	1438.0	1350.0
96.21	1426.0	1350.1
96.22	1404.0	1350.2
96.23	1409.0	1350.3
96.24	1418.0	1350.4
96.25	1388.0	1350.4
96.26	1393.0	1350.5
96.27	1401.0	1350.6
96.28	1423.0	1350.7
96.29	1436.0	1350.8
96.3	1400.0	1350.9
96.31	1359.0	1351.0
96.32	1363.0	1351.0
96.33	1420.0	1351.1
96.34	1443.0	1351.2
96.35	1402.0	1351.3
96.36	1381.0	1351.4
96.37	1415.0	1351.4
96.38	1382.0	1351.5
96.39	1403.0	1351.6
96.4	1409.0	1351.7
96.41	1397.0	1351.8
96.42	1424.0	1351.8
96.43	1440.0	1351.9
96.44	1417.0	1352.0
96.45	1432.0	1352.1
96.46	1430.0	1352.2
96.47	1430.0	1352.2
96.48	1412.0	1352.3
96.49	1387.0	1352.4
96.5	1405.0	1352.5
96.51	1412.0	1352.6
96.52	1396.0	1352.6
96.53	1413.0	1352.7
96.54	1420.0	1352.8
96.55	1404.0	1352.9
96.56	1391.0	1352.9
96.57	1346.0	1353.0
96.58	1389.0	1353.1
96.59	1436.0	1353.2
96.6	1452.0	1353.2
96.61	1436.0	1353.3
96.62	1376.0	1353.4
96.63	1390.0	1353.5
96.64	1402.0	1353.5
96.65	1420.0	1353.6
96.66	1421.0	1353.7
96.67	1417.0	1353.7
96.68	1391.0	1353.8
96.69	1382.0	1353.9
96.7	1393.0	1354.0
96.71	1393.0	1354.0
96.72	1369.0	1354.1
96.73	1368.0	1354.2
96.74	1384.0	1354.2
96.75	1417.0	1354.3
96.76	1440.0	1354.4
96.77	1442.0	1354.5
96.78	1363.0	1354.5
96.79	1382.0	1354.6
96.8	1393.0	1354.7
96.81	1382.0	1354.7
96.82	1352.0	1354.8
96.83	1378.0	1354.9
96.84	1408.0	1354.9
96.85	1458.0	1355.0
96.86	1472.0	1355.1
96.87	1437.0	1355.1
96.88	1426.0	1355.2
96.89	1469.0	1355.3
96.9	1408.0	1355.3
96.91	1390.0	1355.4
96.92	1439.0	1355.4
96.93	1414.0	1355.5
96.94	1371.0	1355.6
96.95	1386.0	1355.6
96.96	1406.0	1355.7
96.97	1409.0	1355.8
96.98	1436.0	1355.8
96.99	1447.0	1355.9
97.0	1384.0	1355.9
97.01	1370.0	1356.0
97.02	1434.0	1356.1
97.03	1397.0	1356.1
97.04	1443.0	1356.2
97.05	1437.0	1356.2
97.06	1409.0	1356.3
97.07	1430.0	1356.4
97.08	1410.0	1356.4
97.09	1371.0	1356.5
97.1	1414.0	1356.5
97.11	1415.0	1356.6
97.12	1399.0	1356.6
97.13	1375.0	1356.7
97.14	1380.0	1356.8
97.15	1377.0	1356.8
97.16	1400.0	1356.9
97.17	1426.0	1356.9
97.18	1417.0	1357.0
97.19	1375.0	1357.0
97.2	1442.0	1357.1
97.21	1382.0	1357.1
97.22	1371.0	1357.2
97.23	1391.0	1357.3
97.24	1450.0	1357.3
97.25	1374.0	1357.4
97.26	1353.0	1357.4
97.27	1376.0	1357.5
97.28	1429.0	1357.5
97.29	1444.0	1357.6
97.3	1459.0	1357.6
97.31	1432.0	1357.7
97.32	1384.0	1357.7
97.33	1359.0	1357.8
97.34	1398.0	1357.8
97.35	1412.0	1357.9
97.36	1436.0	1357.9
97.37	1391.0	1358.0
97.38	1373.0	1358.0
97.39	1386.0	1358.0
97.4	1387.0	1358.1
97.41	1379.0	1358.1
97.42	1394.0	1358.2
97.43	1351.0	1358.2
97.44	1362.0	1358.3
97.45	1393.0	1358.3
97.46	1428.0	1358.4
97.47	1422.0	1358.4
97.48	1446.0	1358.5
97.49	1442.0	1358.5
97.5	1400.0	1358.5
97.51	1387.0	1358.6
97.52	1394.0	1358.6
97.53	1430.0	1358.7
97.54	1458.0	1358.7
97.55	1430.0	1358.7
97.56	1408.0	1358.8
97.57	1374.0	1358.8
97.58	1346.0	1358.9
97.59	1374.0	1358.9
97.6	1410.0	1358.9
97.61	1404.0	1359.0
97.62	1408.0	1359.0
97.63	1362.0	1359.1
97.64	1423.0	1359.1
97.65	1389.0	1359.1
97.66	1445.0	1359.2
97.67	1473.0	1359.2
97.68	1447.0	1359.2
97.69	1416.0	1359.3
97.7	1392.0	1359.3
97.71	1423.0	1359.3
97.72	1409.0	1359.4
97.73	1410.0	1359.4
97.74	1448.0	1359.4
97.75	1441.0	1359.5
97.76	1437.0	1359.5
97.77	1415.0	1359.5
97.78	1395.0	1359.6
97.79	1380.0	1359.6
97.8	1384.0	1359.6
97.81	1373.0	1359.7
97.82	1362.0	1359.7
97.83	1345.0	1359.7
97.84	1368.0	1359.8
97.85	1386.0	1359.8
97.86	1394.0	1359.8
97.87	1415.0	1359.8
97.88	1388.0	1359.9
97.89	1440.0	1359.9
97.9	1444.0	1359.9
97.91	1382.0	1360.0
97.92	1393.0	1360.0
97.93	1446.0	1360.0
97.94	1415.0	1360.0
97.95	1380.0	1360.1
97.96	1347.0	1360.1
97.97	1361.0	1360.1
97.98	1431.0	1360.1
97.99	1445.0	1360.2
98.0	1392.0	1360.2
98.01	1411.0	1360.2
98.02	1469.0	1360.2
98.03	1411.0	1360.2
98.04	1369.0	1360.3
98.05	1412.0	1360.3
98.06	1406.0	1360.3
98.07	1392.0	1360.3
98.08	1392.0	1360.3
98.09	1414.0	1360.4
98.1	1408.0	1360.4
98.11	1377.0	1360.4
98.12	1371.0	1360.4
98.13	1423.0	1360.4
98.14	1421.0	1360.5
98.15	1375.0	1360.5
98.16	1370.0	1360.5
98.17	1396.0	1360.5
98.18	1433.0	1360.5
98.19	1420.0	1360.5
98.2	1446.0	1360.6
98.21	1451.0	1360.6
98.22	1461.0	1360.6
98.23	1469.0	1360.6
98.24	1447.0	1360.6
98.25	1416.0	1360.6
98.26	1414.0	1360.6
98.27	1425.0	1360.7
98.28	1383.0	1360.7
98.29	1411.0	1360.7
98.3	1396.0	1360.7
98.31	1438.0	1360.7
98.32	1426.0	1360.7
98.33	1358.0	1360.7
98.34	1372.0	1360.7
98.35	1420.0	1360.8
98.36	1389.0	1360.8
98.37	1357.0	1360.8
98.38	1370.0	1360.8
98.39	1417.0	1360.8
98.4	1393.0	1360.8
98.41	1381.0	1360.8
98.42	1411.0	1360.8
98.43	1447.0	1360.8
98.44	1391.0	1360.8
98.45	1411.0	1360.9
98.46	1448.0	1360.9
98.47	1457.0	1360.9
98.48	1408.0	1360.9
98.49	1404.0	1360.9
98.5	1387.0	1360.9
98.51	1392.0	1360.9
98.52	1390.0	1360.9
98.53	1416.0	1360.9
98.54	1439.0	1360.9
98.55	1423.0	1360.9
98.56	1388.0	1360.9
98.57	1380.0	1360.9
98.58	1430.0	1360.9
98.59	1483.0	1360.9
98.6	1458.0	1360.9
98.61	1412.0	1360.9
98.62	1417.0	1360.9
98.63	1418.0	1360.9
98.64	1422.0	1361.0
98.65	1447.0	1361.0
98.66	1446.0	1361.0
98.67	1413.0	1361.0
98.68	1378.0	1361.0
98.69	1404.0	1361.0
98.7	1414.0	1361.0
98.71	1422.0	1361.0
98.72	1465.0	1361.0
98.73	1512.0	1361.0
98.74	1487.0	1361.0
98.75	1425.0	1361.0
98.76	1410.0	1361.0
98.77	1429.0	1361.0
98.78	1427.0	1361.0
98.79	1389.0	1361.0
98.8	1358.0	1361.0
98.81	1421.0	1361.0
98.82	1450.0	1361.0
98.83	1438.0	1361.0
98.84	1403.0	1361.0
98.85	1408.0	1361.0
98.86	1458.0	1361.0
98.87	1444.0	1360.9
98.88	1410.0	1360.9
98.89	1396.0	1360.9
98.9	1408.0	1360.9
98.91	1426.0	1360.9
98.92	1449.0	1360.9
98.93	1456.0	1360.9
98.94	1452.0	1360.9
98.95	1427.0	1360.9
98.96	1440.0	1360.9
98.97	1407.0	1360.9
98.98	1413.0	1360.9
98.99	1420.0	1360.9
99.0	1469.0	1360.9
99.01	1512.0	1360.9
99.02	1501.0	1360.9
99.03	1468.0	1360.9
99.04	1447.0	1360.9
99.05	1405.0	1360.9
99.06	1431.0	1360.9
99.07	1460.0	1360.9
99.08	1411.0	1360.8
99.09	1439.0	1360.8
99.1	1421.0	1360.8
99.11	1439.0	1360.8
99.12	1484.0	1360.8
99.13	1476.0	1360.8
99.14	1444.0	1360.8
99.15	1483.0	1360.8
99.16	1476.0	1360.8
99.17	1454.0	1360.8
99.18	1481.0	1360.8
99.19	1466.0	1360.8
99.2	1482.0	1360.8
99.21	1423.0	1360.7
99.22	1424.0	1360.7
99.23	1489.0	1360.7
99.24	1460.0	1360.7
99.25	1456.0	1360.7
99.26	1505.0	1360.7
99.27	1516.0	1360.7
99.28	1469.0	1360.7
99.29	1496.0	1360.7
99.3	1483.0	1360.7
99.31	1428.0	1360.6
99.32	1435.0	1360.6
99.33	1437.0	1360.6
99.34	1482.0	1360.6
99.35	1499.0	1360.6
99.36	1494.0	1360.6
99.37	1466.0	1360.6
99.38	1477.0	1360.6
99.39	1469.0	1360.6
99.4	1452.0	1360.6
99.41	1472.0	1360.5
99.42	1463.0	1360.5
99.43	1472.0	1360.5
99.44	1521.0	1360.5
99.45	1493.0	1360.5
99.46	1508.0	1360.5
99.47	1487.0	1360.5
99.48	1477.0	1360.5
99.49	1521.0	1360.4
99.5	1529.0	1360.4
99.51	1530.0	1360.4
99.52	1550.0	1360.4
99.53	1453.0	1360.4
99.54	1504.0	1360.4
99.55	1478.0	1360.4
99.56	1518.0	1360.4
99.57	1532.0	1360.3
99.58	1506.0	1360.3
99.59	1515.0	1360.3
99.6	1532.0	1360.3
99.61	1551.0	1360.3
99.62	1492.0	1360.3
99.63	1539.0	1360.3
99.64	1564.0	1360.2
99.65	1586.0	1360.2
99.66	1543.0	1360.2
99.67	1515.0	1360.2
99.68	1556.0	1360.2
99.69	1551.0	1360.2
99.7	1559.0	1360.2
99.71	1622.0	1360.2
99.72	1594.0	1360.1
99.73	1608.0	1360.1
99.74	1565.0	1360.1
99.75	1554.0	1360.1
99.76	1643.0	1360.1
99.77	1640.0	1360.1
99.78	1653.0	1360.1
99.79	1611.0	1360.0
99.8	1591.0	1360.0
99.81	1653.0	1360.0
99.82	1646.0	1360.0
99.83	1669.0	1360.0
99.84	1692.0	1360.0
99.85	1658.0	1360.0
99.86	1681.0	1359.9
99.87	1662.0	1359.9
99.88	1676.0	1359.9
99.89	1724.0	1359.9
99.9	1691.0	1359.9
99.91	1653.0	1359.9
99.92	1697.0	1359.8
99.93	1729.0	1359.8
99.94	1672.0	1359.8
99.95	1658.0	1359.8
99.96	1705.0	1359.8
99.97	1742.0	1359.8
99.98	1708.0	1359.8
99.99	1686.0	1359.7
100.0	1696.0	1359.7
