BroadPeak_LiMnO2_SPE
Wavelength = 1.54059 Ã… (Cu)
Angle	I(o)	I(b)
10.0	1995.0	1946.9
10.01	1998.0	1948.3
10.02	1929.0	1949.7
10.03	1907.0	1951.1
10.04	1950.0	1952.6
10.05	2030.0	1954.0
10.06	2028.0	1955.4
10.07	2026.0	1956.8
10.08	2040.0	1958.2
10.09	2021.0	1959.6
10.1	2043.0	1961.1
10.11	2010.0	1962.5
10.12	1992.0	1963.9
10.13	2032.0	1965.3
10.14	2028.0	1966.7
10.15	1977.0	1968.1
10.16	1957.0	1969.6
10.17	1992.0	1971.0
10.18	2052.0	1972.4
10.19	2048.0	1973.8
10.2	2046.0	1975.2
10.21	2046.0	1976.6
10.22	2007.0	1978.1
10.23	1972.0	1979.5
10.24	1999.0	1980.9
10.25	1988.0	1982.3
10.26	1987.0	1983.7
10.27	2060.0	1985.1
10.28	2008.0	1986.5
10.29	2010.0	1987.9
10.3	2019.0	1989.3
10.31	2009.0	1990.8
10.32	2027.0	1992.2
10.33	2003.0	1993.6
10.34	2012.0	1995.0
10.35	2024.0	1996.4
10.36	1928.0	1997.8
10.37	1994.0	1999.2
10.38	2046.0	2000.6
10.39	2020.0	2002.0
10.4	2010.0	2003.4
10.41	2050.0	2004.8
10.42	2052.0	2006.2
10.43	2063.0	2007.6
10.44	2025.0	2009.0
10.45	2032.0	2010.4
10.46	2031.0	2011.8
10.47	2062.0	2013.2
10.48	2017.0	2014.6
10.49	2049.0	2016.0
10.5	2027.0	2017.4
10.51	1999.0	2018.8
10.52	1984.0	2020.2
10.53	2017.0	2021.6
10.54	2034.0	2023.0
10.55	2029.0	2024.3
10.56	2049.0	2025.7
10.57	2050.0	2027.1
10.58	2070.0	2028.5
10.59	2085.0	2029.9
10.6	2042.0	2031.3
10.61	2027.0	2032.6
10.62	2074.0	2034.0
10.63	2112.0	2035.4
10.64	2086.0	2036.8
10.65	2059.0	2038.2
10.66	2035.0	2039.5
10.67	2088.0	2040.9
10.68	2114.0	2042.3
10.69	2014.0	2043.7
10.7	1987.0	2045.0
10.71	2030.0	2046.4
10.72	2050.0	2047.8
10.73	2056.0	2049.1
10.74	2078.0	2050.5
10.75	2086.0	2051.9
10.76	2088.0	2053.2
10.77	2030.0	2054.6
10.78	2012.0	2055.9
10.79	2093.0	2057.3
10.8	2128.0	2058.7
10.81	2043.0	2060.0
10.82	2056.0	2061.4
10.83	2110.0	2062.7
10.84	2107.0	2064.1
10.85	2102.0	2065.4
10.86	2096.0	2066.8
10.87	2116.0	2068.1
10.88	2100.0	2069.4
10.89	2127.0	2070.8
10.9	2115.0	2072.1
10.91	2097.0	2073.5
10.92	2079.0	2074.8
10.93	2088.0	2076.1
10.94	2098.0	2077.5
10.95	2092.0	2078.8
10.96	2151.0	2080.1
10.97	2108.0	2081.4
10.98	2084.0	2082.8
10.99	2081.0	2084.1
11.0	2065.0	2085.4
11.01	2082.0	2086.7
11.02	2092.0	2088.0
11.03	2132.0	2089.4
11.04	2139.0	2090.7
11.05	2109.0	2092.0
11.06	2057.0	2093.3
11.07	2077.0	2094.6
11.08	2129.0	2095.9
11.09	2089.0	2097.2
11.1	2058.0	2098.5
11.11	2123.0	2099.8
11.12	2124.0	2101.1
11.13	2060.0	2102.4
11.14	2122.0	2103.7
11.15	2106.0	2105.0
11.16	2117.0	2106.3
11.17	2127.0	2107.5
11.18	2106.0	2108.8
11.19	2106.0	2110.1
11.2	2095.0	2111.4
11.21	2097.0	2112.7
11.22	2132.0	2113.9
11.23	2133.0	2115.2
11.24	2097.0	2116.5
11.25	2147.0	2117.7
11.26	2135.0	2119.0
11.27	2142.0	2120.3
11.28	2149.0	2121.5
11.29	2133.0	2122.8
11.3	2094.0	2124.0
11.31	2163.0	2125.3
11.32	2202.0	2126.6
11.33	2162.0	2127.8
11.34	2115.0	2129.1
11.35	2140.0	2130.3
11.36	2147.0	2131.5
11.37	2167.0	2132.8
11.38	2109.0	2134.0
11.39	2095.0	2135.3
11.4	2096.0	2136.5
11.41	2136.0	2137.7
11.42	2177.0	2139.0
11.43	2160.0	2140.2
11.44	2198.0	2141.4
11.45	2161.0	2142.6
11.46	2156.0	2143.9
11.47	2158.0	2145.1
11.48	2166.0	2146.3
11.49	2139.0	2147.5
11.5	2195.0	2148.7
11.51	2219.0	2149.9
11.52	2147.0	2151.2
11.53	2176.0	2152.4
11.54	2119.0	2153.6
11.55	2107.0	2154.8
11.56	2118.0	2156.0
11.57	2156.0	2157.2
11.58	2172.0	2158.4
11.59	2190.0	2159.6
11.6	2194.0	2160.7
11.61	2141.0	2161.9
11.62	2117.0	2163.1
11.63	2134.0	2164.3
11.64	2206.0	2165.5
11.65	2218.0	2166.7
11.66	2153.0	2167.9
11.67	2164.0	2169.0
11.68	2168.0	2170.2
11.69	2169.0	2171.4
11.7	2230.0	2172.5
11.71	2215.0	2173.7
11.72	2192.0	2174.9
11.73	2220.0	2176.0
11.74	2244.0	2177.2
11.75	2202.0	2178.4
11.76	2195.0	2179.5
11.77	2190.0	2180.7
11.78	2165.0	2181.8
11.79	2170.0	2183.0
11.8	2148.0	2184.1
11.81	2172.0	2185.3
11.82	2202.0	2186.4
11.83	2214.0	2187.6
11.84	2299.0	2188.7
11.85	2228.0	2189.8
11.86	2186.0	2191.0
11.87	2232.0	2192.1
11.88	2204.0	2193.2
11.89	2188.0	2194.3
11.9	2215.0	2195.5
11.91	2201.0	2196.6
11.92	2250.0	2197.7
11.93	2262.0	2198.8
11.94	2225.0	2200.0
11.95	2248.0	2201.1
11.96	2226.0	2202.2
11.97	2253.0	2203.3
11.98	2199.0	2204.4
11.99	2195.0	2205.5
12.0	2176.0	2206.6
12.01	2183.0	2207.7
12.02	2286.0	2208.8
12.03	2266.0	2209.9
12.04	2277.0	2211.0
12.05	2225.0	2212.1
12.06	2230.0	2213.2
12.07	2213.0	2214.3
12.08	2175.0	2215.3
12.09	2223.0	2216.4
12.1	2234.0	2217.5
12.11	2219.0	2218.6
12.12	2200.0	2219.6
12.13	2216.0	2220.7
12.14	2246.0	2221.8
12.15	2215.0	2222.9
12.16	2303.0	2223.9
12.17	2300.0	2225.0
12.18	2292.0	2226.1
12.19	2259.0	2227.1
12.2	2291.0	2228.2
12.21	2290.0	2229.2
12.22	2237.0	2230.3
12.23	2253.0	2231.3
12.24	2222.0	2232.4
12.25	2200.0	2233.4
12.26	2156.0	2234.5
12.27	2244.0	2235.5
12.28	2317.0	2236.5
12.29	2235.0	2237.6
12.3	2175.0	2238.6
12.31	2237.0	2239.6
12.32	2323.0	2240.7
12.33	2309.0	2241.7
12.34	2291.0	2242.7
12.35	2256.0	2243.7
12.36	2247.0	2244.8
12.37	2252.0	2245.8
12.38	2346.0	2246.8
12.39	2316.0	2247.8
12.4	2236.0	2248.8
12.41	2262.0	2249.8
12.42	2275.0	2250.8
12.43	2309.0	2251.8
12.44	2261.0	2252.8
12.45	2252.0	2253.8
12.46	2229.0	2254.8
12.47	2232.0	2255.8
12.48	2296.0	2256.8
12.49	2290.0	2257.8
12.5	2231.0	2258.8
12.51	2244.0	2259.8
12.52	2285.0	2260.7
12.53	2306.0	2261.7
12.54	2297.0	2262.7
12.55	2329.0	2263.7
12.56	2350.0	2264.6
12.57	2319.0	2265.6
12.58	2261.0	2266.6
12.59	2240.0	2267.5
12.6	2259.0	2268.5
12.61	2274.0	2269.5
12.62	2306.0	2270.4
12.63	2292.0	2271.4
12.64	2219.0	2272.3
12.65	2208.0	2273.3
12.66	2299.0	2274.2
12.67	2312.0	2275.2
12.68	2309.0	2276.1
12.69	2290.0	2277.1
12.7	2345.0	2278.0
12.71	2309.0	2278.9
12.72	2308.0	2279.9
12.73	2345.0	2280.8
12.74	2372.0	2281.7
12.75	2343.0	2282.7
12.76	2295.0	2283.6
12.77	2270.0	2284.5
12.78	2299.0	2285.4
12.79	2295.0	2286.3
12.8	2345.0	2287.3
12.81	2360.0	2288.2
12.82	2314.0	2289.1
12.83	2304.0	2290.0
12.84	2288.0	2290.9
12.85	2310.0	2291.8
12.86	2321.0	2292.7
12.87	2279.0	2293.6
12.88	2301.0	2294.5
12.89	2298.0	2295.4
12.9	2333.0	2296.3
12.91	2344.0	2297.2
12.92	2325.0	2298.0
12.93	2325.0	2298.9
12.94	2305.0	2299.8
12.95	2356.0	2300.7
12.96	2371.0	2301.6
12.97	2356.0	2302.4
12.98	2318.0	2303.3
12.99	2325.0	2304.2
13.0	2319.0	2305.0
13.01	2341.0	2305.9
13.02	2320.0	2306.8
13.03	2281.0	2307.6
13.04	2344.0	2308.5
13.05	2401.0	2309.3
13.06	2444.0	2310.2
13.07	2382.0	2311.0
13.08	2388.0	2311.9
13.09	2390.0	2312.7
13.1	2359.0	2313.5
13.11	2321.0	2314.4
13.12	2341.0	2315.2
13.13	2320.0	2316.1
13.14	2303.0	2316.9
13.15	2335.0	2317.7
13.16	2330.0	2318.5
13.17	2347.0	2319.4
13.18	2335.0	2320.2
13.19	2349.0	2321.0
13.2	2416.0	2321.8
13.21	2406.0	2322.6
13.22	2373.0	2323.4
13.23	2379.0	2324.3
13.24	2418.0	2325.1
13.25	2445.0	2325.9
13.26	2390.0	2326.7
13.27	2404.0	2327.5
13.28	2394.0	2328.3
13.29	2399.0	2329.1
13.3	2446.0	2329.8
13.31	2406.0	2330.6
13.32	2389.0	2331.4
13.33	2388.0	2332.2
13.34	2356.0	2333.0
13.35	2381.0	2333.8
13.36	2353.0	2334.5
13.37	2371.0	2335.3
13.38	2405.0	2336.1
13.39	2413.0	2336.9
13.4	2366.0	2337.6
13.41	2354.0	2338.4
13.42	2373.0	2339.1
13.43	2368.0	2339.9
13.44	2391.0	2340.7
13.45	2442.0	2341.4
13.46	2422.0	2342.2
13.47	2448.0	2342.9
13.48	2401.0	2343.7
13.49	2413.0	2344.4
13.5	2389.0	2345.2
13.51	2400.0	2345.9
13.52	2387.0	2346.6
13.53	2392.0	2347.4
13.54	2367.0	2348.1
13.55	2350.0	2348.8
13.56	2380.0	2349.6
13.57	2414.0	2350.3
13.58	2421.0	2351.0
13.59	2362.0	2351.7
13.6	2304.0	2352.4
13.61	2307.0	2353.2
13.62	2383.0	2353.9
13.63	2448.0	2354.6
13.64	2438.0	2355.3
13.65	2416.0	2356.0
13.66	2391.0	2356.7
13.67	2407.0	2357.4
13.68	2475.0	2358.1
13.69	2444.0	2358.8
13.7	2437.0	2359.5
13.71	2426.0	2360.2
13.72	2429.0	2360.9
13.73	2388.0	2361.6
13.74	2420.0	2362.2
13.75	2430.0	2362.9
13.76	2434.0	2363.6
13.77	2425.0	2364.3
13.78	2434.0	2365.0
13.79	2450.0	2365.6
13.8	2475.0	2366.3
13.81	2445.0	2367.0
13.82	2396.0	2367.6
13.83	2417.0	2368.3
13.84	2460.0	2369.0
13.85	2363.0	2369.6
13.86	2370.0	2370.3
13.87	2401.0	2370.9
13.88	2430.0	2371.6
13.89	2454.0	2372.2
13.9	2428.0	2372.9
13.91	2421.0	2373.5
13.92	2441.0	2374.2
13.93	2401.0	2374.8
13.94	2470.0	2375.4
13.95	2419.0	2376.1
13.96	2439.0	2376.7
13.97	2452.0	2377.3
13.98	2466.0	2378.0
13.99	2422.0	2378.6
14.0	2475.0	2379.2
14.01	2461.0	2379.8
14.02	2435.0	2380.4
14.03	2452.0	2381.1
14.04	2471.0	2381.7
14.05	2458.0	2382.3
14.06	2408.0	2382.9
14.07	2441.0	2383.5
14.08	2500.0	2384.1
14.09	2517.0	2384.7
14.1	2504.0	2385.3
14.11	2491.0	2385.9
14.12	2466.0	2386.5
14.13	2441.0	2387.1
14.14	2460.0	2387.7
14.15	2444.0	2388.3
14.16	2482.0	2388.8
14.17	2464.0	2389.4
14.18	2488.0	2390.0
14.19	2499.0	2390.6
14.2	2471.0	2391.2
14.21	2483.0	2391.7
14.22	2447.0	2392.3
14.23	2487.0	2392.9
14.24	2524.0	2393.4
14.25	2484.0	2394.0
14.26	2496.0	2394.6
14.27	2521.0	2395.1
14.28	2516.0	2395.7
14.29	2487.0	2396.2
14.3	2494.0	2396.8
14.31	2527.0	2397.4
14.32	2497.0	2397.9
14.33	2474.0	2398.4
14.34	2508.0	2399.0
14.35	2542.0	2399.5
14.36	2500.0	2400.1
14.37	2471.0	2400.6
14.38	2487.0	2401.1
14.39	2475.0	2401.7
14.4	2504.0	2402.2
14.41	2512.0	2402.7
14.42	2496.0	2403.3
14.43	2533.0	2403.8
14.44	2501.0	2404.3
14.45	2475.0	2404.8
14.46	2511.0	2405.3
14.47	2487.0	2405.9
14.48	2474.0	2406.4
14.49	2491.0	2406.9
14.5	2537.0	2407.4
14.51	2515.0	2407.9
14.52	2494.0	2408.4
14.53	2520.0	2408.9
14.54	2529.0	2409.4
14.55	2531.0	2409.9
14.56	2459.0	2410.4
14.57	2481.0	2410.9
14.58	2547.0	2411.4
14.59	2526.0	2411.9
14.6	2478.0	2412.3
14.61	2470.0	2412.8
14.62	2498.0	2413.3
14.63	2538.0	2413.8
14.64	2511.0	2414.3
14.65	2510.0	2414.7
14.66	2521.0	2415.2
14.67	2519.0	2415.7
14.68	2548.0	2416.1
14.69	2542.0	2416.6
14.7	2537.0	2417.1
14.71	2511.0	2417.5
14.72	2550.0	2418.0
14.73	2530.0	2418.4
14.74	2541.0	2418.9
14.75	2578.0	2419.3
14.76	2553.0	2419.8
14.77	2552.0	2420.2
14.78	2527.0	2420.7
14.79	2501.0	2421.1
14.8	2505.0	2421.6
14.81	2548.0	2422.0
14.82	2562.0	2422.4
14.83	2535.0	2422.9
14.84	2540.0	2423.3
14.85	2554.0	2423.7
14.86	2579.0	2424.2
14.87	2578.0	2424.6
14.88	2493.0	2425.0
14.89	2550.0	2425.4
14.9	2608.0	2425.8
14.91	2556.0	2426.3
14.92	2590.0	2426.7
14.93	2578.0	2427.1
14.94	2549.0	2427.5
14.95	2602.0	2427.9
14.96	2628.0	2428.3
14.97	2586.0	2428.7
14.98	2533.0	2429.1
14.99	2567.0	2429.5
15.0	2602.0	2429.9
15.01	2625.0	2430.3
15.02	2612.0	2430.7
15.03	2603.0	2431.1
15.04	2606.0	2431.5
15.05	2575.0	2431.9
15.06	2561.0	2432.2
15.07	2601.0	2432.6
15.08	2629.0	2433.0
15.09	2601.0	2433.4
15.1	2618.0	2433.8
15.11	2671.0	2434.1
15.12	2682.0	2434.5
15.13	2640.0	2434.9
15.14	2606.0	2435.2
15.15	2624.0	2435.6
15.16	2654.0	2436.0
15.17	2674.0	2436.3
15.18	2650.0	2436.7
15.19	2674.0	2437.0
15.2	2645.0	2437.4
15.21	2667.0	2437.7
15.22	2711.0	2438.1
15.23	2693.0	2438.4
15.24	2654.0	2438.8
15.25	2667.0	2439.1
15.26	2669.0	2439.5
15.27	2652.0	2439.8
15.28	2686.0	2440.1
15.29	2701.0	2440.5
15.3	2708.0	2440.8
15.31	2715.0	2441.1
15.32	2713.0	2441.5
15.33	2749.0	2441.8
15.34	2795.0	2442.1
15.35	2803.0	2442.4
15.36	2784.0	2442.7
15.37	2735.0	2443.1
15.38	2748.0	2443.4
15.39	2743.0	2443.7
15.4	2723.0	2444.0
15.41	2818.0	2444.3
15.42	2809.0	2444.6
15.43	2763.0	2444.9
15.44	2807.0	2445.2
15.45	2840.0	2445.5
15.46	2835.0	2445.8
15.47	2845.0	2446.1
15.48	2860.0	2446.4
15.49	2850.0	2446.7
15.5	2821.0	2447.0
15.51	2802.0	2447.3
15.52	2806.0	2447.6
15.53	2787.0	2447.8
15.54	2779.0	2448.1
15.55	2809.0	2448.4
15.56	2805.0	2448.7
15.57	2756.0	2449.0
15.58	2777.0	2449.2
15.59	2810.0	2449.5
15.6	2805.0	2449.8
15.61	2809.0	2450.0
15.62	2786.0	2450.3
15.63	2771.0	2450.6
15.64	2746.0	2450.8
15.65	2733.0	2451.1
15.66	2825.0	2451.3
15.67	2830.0	2451.6
15.68	2789.0	2451.8
15.69	2778.0	2452.1
15.7	2790.0	2452.3
15.71	2762.0	2452.6
15.72	2724.0	2452.8
15.73	2737.0	2453.1
15.74	2749.0	2453.3
15.75	2737.0	2453.6
15.76	2733.0	2453.8
15.77	2765.0	2454.0
15.78	2741.0	2454.3
15.79	2731.0	2454.5
15.8	2751.0	2454.7
15.81	2731.0	2454.9
15.82	2712.0	2455.2
15.83	2762.0	2455.4
15.84	2746.0	2455.6
15.85	2711.0	2455.8
15.86	2716.0	2456.0
15.87	2721.0	2456.2
15.88	2701.0	2456.5
15.89	2729.0	2456.7
15.9	2705.0	2456.9
15.91	2627.0	2457.1
15.92	2666.0	2457.3
15.93	2663.0	2457.5
15.94	2628.0	2457.7
15.95	2678.0	2457.9
15.96	2720.0	2458.1
15.97	2693.0	2458.3
15.98	2658.0	2458.5
15.99	2660.0	2458.6
16.0	2721.0	2458.8
16.01	2675.0	2459.0
16.02	2662.0	2459.2
16.03	2635.0	2459.4
16.04	2610.0	2459.6
16.05	2631.0	2459.7
16.06	2678.0	2459.9
16.07	2704.0	2460.1
16.08	2681.0	2460.3
16.09	2653.0	2460.4
16.1	2628.0	2460.6
16.11	2649.0	2460.8
16.12	2637.0	2460.9
16.13	2661.0	2461.1
16.14	2686.0	2461.2
16.15	2653.0	2461.4
16.16	2600.0	2461.5
16.17	2608.0	2461.7
16.18	2681.0	2461.8
16.19	2659.0	2462.0
16.2	2636.0	2462.1
16.21	2678.0	2462.3
16.22	2684.0	2462.4
16.23	2659.0	2462.6
16.24	2679.0	2462.7
16.25	2636.0	2462.8
16.26	2614.0	2463.0
16.27	2665.0	2463.1
16.28	2691.0	2463.2
16.29	2658.0	2463.4
16.3	2668.0	2463.5
16.31	2714.0	2463.6
16.32	2672.0	2463.8
16.33	2624.0	2463.9
16.34	2611.0	2464.0
16.35	2604.0	2464.1
16.36	2617.0	2464.2
16.37	2658.0	2464.3
16.38	2651.0	2464.5
16.39	2634.0	2464.6
16.4	2656.0	2464.7
16.41	2611.0	2464.8
16.42	2609.0	2464.9
16.43	2615.0	2465.0
16.44	2627.0	2465.1
16.45	2607.0	2465.2
16.46	2615.0	2465.3
16.47	2646.0	2465.4
16.48	2598.0	2465.5
16.49	2608.0	2465.5
16.5	2644.0	2465.6
16.51	2649.0	2465.7
16.52	2589.0	2465.8
16.53	2527.0	2465.9
16.54	2558.0	2466.0
16.55	2557.0	2466.0
16.56	2549.0	2466.1
16.57	2596.0	2466.2
16.58	2612.0	2466.3
16.59	2587.0	2466.3
16.6	2589.0	2466.4
16.61	2558.0	2466.5
16.62	2536.0	2466.5
16.63	2576.0	2466.6
16.64	2612.0	2466.7
16.65	2591.0	2466.7
16.66	2551.0	2466.8
16.67	2595.0	2466.8
16.68	2595.0	2466.9
16.69	2568.0	2466.9
16.7	2586.0	2467.0
16.71	2569.0	2467.0
16.72	2574.0	2467.1
16.73	2608.0	2467.1
16.74	2650.0	2467.2
16.75	2675.0	2467.2
16.76	2628.0	2467.3
16.77	2561.0	2467.3
16.78	2541.0	2467.3
16.79	2591.0	2467.4
16.8	2652.0	2467.4
16.81	2620.0	2467.4
16.82	2585.0	2467.4
16.83	2606.0	2467.5
16.84	2612.0	2467.5
16.85	2589.0	2467.5
16.86	2567.0	2467.5
16.87	2554.0	2467.6
16.88	2547.0	2467.6
16.89	2567.0	2467.6
16.9	2549.0	2467.6
16.91	2531.0	2467.6
16.92	2548.0	2467.6
16.93	2551.0	2467.6
16.94	2566.0	2467.6
16.95	2577.0	2467.6
16.96	2557.0	2467.6
16.97	2544.0	2467.6
16.98	2559.0	2467.6
16.99	2601.0	2467.6
17.0	2627.0	2467.6
17.01	2604.0	2467.6
17.02	2528.0	2467.6
17.03	2474.0	2467.6
17.04	2498.0	2467.6
17.05	2546.0	2467.6
17.06	2530.0	2467.5
17.07	2528.0	2467.5
17.08	2536.0	2467.5
17.09	2565.0	2467.5
17.1	2594.0	2467.5
17.11	2594.0	2467.4
17.12	2586.0	2467.4
17.13	2580.0	2467.4
17.14	2612.0	2467.3
17.15	2621.0	2467.3
17.16	2564.0	2467.3
17.17	2549.0	2467.2
17.18	2580.0	2467.2
17.19	2560.0	2467.2
17.2	2527.0	2467.1
17.21	2537.0	2467.1
17.22	2526.0	2467.0
17.23	2521.0	2467.0
17.24	2564.0	2466.9
17.25	2634.0	2466.9
17.26	2651.0	2466.8
17.27	2574.0	2466.8
17.28	2517.0	2466.7
17.29	2529.0	2466.6
17.3	2559.0	2466.6
17.31	2566.0	2466.5
17.32	2554.0	2466.5
17.33	2570.0	2466.4
17.34	2581.0	2466.3
17.35	2575.0	2466.3
17.36	2575.0	2466.2
17.37	2540.0	2466.1
17.38	2512.0	2466.0
17.39	2483.0	2466.0
17.4	2453.0	2465.9
17.41	2485.0	2465.8
17.42	2546.0	2465.7
17.43	2568.0	2465.6
17.44	2553.0	2465.5
17.45	2553.0	2465.5
17.46	2542.0	2465.4
17.47	2525.0	2465.3
17.48	2560.0	2465.2
17.49	2577.0	2465.1
17.5	2566.0	2465.0
17.51	2571.0	2464.9
17.52	2561.0	2464.8
17.53	2541.0	2464.7
17.54	2540.0	2464.6
17.55	2545.0	2464.5
17.56	2554.0	2464.4
17.57	2574.0	2464.3
17.58	2581.0	2464.2
17.59	2583.0	2464.0
17.6	2605.0	2463.9
17.61	2603.0	2463.8
17.62	2578.0	2463.7
17.63	2585.0	2463.6
17.64	2561.0	2463.5
17.65	2522.0	2463.3
17.66	2542.0	2463.2
17.67	2551.0	2463.1
17.68	2578.0	2463.0
17.69	2582.0	2462.8
17.7	2518.0	2462.7
17.71	2544.0	2462.6
17.72	2568.0	2462.4
17.73	2541.0	2462.3
17.74	2541.0	2462.2
17.75	2513.0	2462.0
17.76	2527.0	2461.9
17.77	2544.0	2461.7
17.78	2539.0	2461.6
17.79	2591.0	2461.4
17.8	2608.0	2461.3
17.81	2572.0	2461.1
17.82	2566.0	2461.0
17.83	2577.0	2460.8
17.84	2563.0	2460.7
17.85	2536.0	2460.5
17.86	2538.0	2460.4
17.87	2578.0	2460.2
17.88	2615.0	2460.0
17.89	2609.0	2459.9
17.9	2569.0	2459.7
17.91	2523.0	2459.5
17.92	2482.0	2459.4
17.93	2475.0	2459.2
17.94	2527.0	2459.0
17.95	2545.0	2458.8
17.96	2553.0	2458.7
17.97	2572.0	2458.5
17.98	2521.0	2458.3
17.99	2486.0	2458.1
18.0	2525.0	2458.0
18.01	2606.0	2457.8
18.02	2636.0	2457.6
18.03	2573.0	2457.4
18.04	2520.0	2457.2
18.05	2509.0	2457.0
18.06	2517.0	2456.8
18.07	2558.0	2456.6
18.08	2570.0	2456.4
18.09	2570.0	2456.2
18.1	2563.0	2456.0
18.11	2552.0	2455.8
18.12	2572.0	2455.6
18.13	2550.0	2455.4
18.14	2551.0	2455.2
18.15	2617.0	2455.0
18.16	2617.0	2454.8
18.17	2550.0	2454.6
18.18	2492.0	2454.4
18.19	2454.0	2454.2
18.2	2471.0	2454.0
18.21	2558.0	2453.7
18.22	2586.0	2453.5
18.23	2558.0	2453.3
18.24	2493.0	2453.1
18.25	2489.0	2452.8
18.26	2574.0	2452.6
18.27	2620.0	2452.4
18.28	2568.0	2452.2
18.29	2516.0	2451.9
18.3	2500.0	2451.7
18.31	2503.0	2451.5
18.32	2483.0	2451.2
18.33	2467.0	2451.0
18.34	2495.0	2450.8
18.35	2555.0	2450.5
18.36	2606.0	2450.3
18.37	2576.0	2450.0
18.38	2529.0	2449.8
18.39	2495.0	2449.5
18.4	2505.0	2449.3
18.41	2537.0	2449.0
18.42	2587.0	2448.8
18.43	2597.0	2448.5
18.44	2579.0	2448.3
18.45	2544.0	2448.0
18.46	2518.0	2447.8
18.47	2507.0	2447.5
18.48	2472.0	2447.2
18.49	2477.0	2447.0
18.5	2489.0	2446.7
18.51	2471.0	2446.5
18.52	2481.0	2446.2
18.53	2517.0	2445.9
18.54	2556.0	2445.6
18.55	2534.0	2445.4
18.56	2549.0	2445.1
18.57	2589.0	2444.8
18.58	2579.0	2444.5
18.59	2567.0	2444.3
18.6	2539.0	2444.0
18.61	2534.0	2443.7
18.62	2529.0	2443.4
18.63	2520.0	2443.1
18.64	2499.0	2442.8
18.65	2565.0	2442.6
18.66	2599.0	2442.3
18.67	2568.0	2442.0
18.68	2564.0	2441.7
18.69	2559.0	2441.4
18.7	2535.0	2441.1
18.71	2546.0	2440.8
18.72	2548.0	2440.5
18.73	2501.0	2440.2
18.74	2478.0	2439.9
18.75	2484.0	2439.6
18.76	2497.0	2439.3
18.77	2521.0	2439.0
18.78	2534.0	2438.7
18.79	2491.0	2438.4
18.8	2449.0	2438.1
18.81	2461.0	2437.7
18.82	2468.0	2437.4
18.83	2485.0	2437.1
18.84	2488.0	2436.8
18.85	2498.0	2436.5
18.86	2529.0	2436.1
18.87	2505.0	2435.8
18.88	2476.0	2435.5
18.89	2484.0	2435.2
18.9	2483.0	2434.8
18.91	2460.0	2434.5
18.92	2479.0	2434.2
18.93	2501.0	2433.9
18.94	2486.0	2433.5
18.95	2477.0	2433.2
18.96	2454.0	2432.9
18.97	2457.0	2432.5
18.98	2461.0	2432.2
18.99	2445.0	2431.8
19.0	2489.0	2431.5
19.01	2479.0	2431.2
19.02	2462.0	2430.8
19.03	2480.0	2430.5
19.04	2489.0	2430.1
19.05	2504.0	2429.8
19.06	2468.0	2429.4
19.07	2457.0	2429.1
19.08	2484.0	2428.7
19.09	2486.0	2428.3
19.1	2504.0	2428.0
19.11	2523.0	2427.6
19.12	2479.0	2427.3
19.13	2440.0	2426.9
19.14	2475.0	2426.5
19.15	2477.0	2426.2
19.16	2435.0	2425.8
19.17	2452.0	2425.4
19.18	2446.0	2425.1
19.19	2443.0	2424.7
19.2	2443.0	2424.3
19.21	2436.0	2424.0
19.22	2430.0	2423.6
19.23	2466.0	2423.2
19.24	2494.0	2422.8
19.25	2493.0	2422.5
19.26	2499.0	2422.1
19.27	2549.0	2421.7
19.28	2497.0	2421.3
19.29	2438.0	2420.9
19.3	2418.0	2420.5
19.31	2436.0	2420.1
19.32	2493.0	2419.8
19.33	2486.0	2419.4
19.34	2483.0	2419.0
19.35	2486.0	2418.6
19.36	2469.0	2418.2
19.37	2485.0	2417.8
19.38	2474.0	2417.4
19.39	2462.0	2417.0
19.4	2461.0	2416.6
19.41	2430.0	2416.2
19.42	2425.0	2415.8
19.43	2434.0	2415.4
19.44	2441.0	2415.0
19.45	2451.0	2414.6
19.46	2437.0	2414.1
19.47	2429.0	2413.7
19.48	2450.0	2413.3
19.49	2457.0	2412.9
19.5	2404.0	2412.5
19.51	2387.0	2412.1
19.52	2416.0	2411.7
19.53	2435.0	2411.2
19.54	2451.0	2410.8
19.55	2436.0	2410.4
19.56	2414.0	2410.0
19.57	2408.0	2409.5
19.58	2493.0	2409.1
19.59	2532.0	2408.7
19.6	2462.0	2408.3
19.61	2452.0	2407.8
19.62	2444.0	2407.4
19.63	2446.0	2407.0
19.64	2441.0	2406.5
19.65	2420.0	2406.1
19.66	2430.0	2405.6
19.67	2453.0	2405.2
19.68	2436.0	2404.8
19.69	2418.0	2404.3
19.7	2421.0	2403.9
19.71	2413.0	2403.4
19.72	2416.0	2403.0
19.73	2425.0	2402.5
19.74	2443.0	2402.1
19.75	2430.0	2401.6
19.76	2394.0	2401.2
19.77	2379.0	2400.7
19.78	2369.0	2400.3
19.79	2366.0	2399.8
19.8	2378.0	2399.4
19.81	2420.0	2398.9
19.82	2432.0	2398.4
19.83	2466.0	2398.0
19.84	2426.0	2397.5
19.85	2415.0	2397.0
19.86	2445.0	2396.6
19.87	2422.0	2396.1
19.88	2408.0	2395.6
19.89	2431.0	2395.2
19.9	2370.0	2394.7
19.91	2370.0	2394.2
19.92	2380.0	2393.8
19.93	2412.0	2393.3
19.94	2457.0	2392.8
19.95	2442.0	2392.3
19.96	2424.0	2391.8
19.97	2416.0	2391.4
19.98	2442.0	2390.9
19.99	2403.0	2390.4
20.0	2388.0	2389.9
20.01	2399.0	2389.4
20.02	2396.0	2388.9
20.03	2420.0	2388.5
20.04	2455.0	2388.0
20.05	2431.0	2387.5
20.06	2392.0	2387.0
20.07	2391.0	2386.5
20.08	2419.0	2386.0
20.09	2360.0	2385.5
20.1	2397.0	2385.0
20.11	2405.0	2384.5
20.12	2440.0	2384.0
20.13	2411.0	2383.5
20.14	2371.0	2383.0
20.15	2340.0	2382.5
20.16	2425.0	2382.0
20.17	2450.0	2381.5
20.18	2450.0	2381.0
20.19	2446.0	2380.4
20.2	2392.0	2379.9
20.21	2336.0	2379.4
20.22	2365.0	2378.9
20.23	2429.0	2378.4
20.24	2384.0	2377.9
20.25	2379.0	2377.4
20.26	2357.0	2376.8
20.27	2383.0	2376.3
20.28	2442.0	2375.8
20.29	2437.0	2375.3
20.3	2441.0	2374.7
20.31	2384.0	2374.2
20.32	2390.0	2373.7
20.33	2398.0	2373.2
20.34	2370.0	2372.6
20.35	2367.0	2372.1
20.36	2401.0	2371.6
20.37	2422.0	2371.0
20.38	2366.0	2370.5
20.39	2337.0	2370.0
20.4	2362.0	2369.4
20.41	2361.0	2368.9
20.42	2356.0	2368.3
20.43	2362.0	2367.8
20.44	2371.0	2367.3
20.45	2367.0	2366.7
20.46	2307.0	2366.2
20.47	2299.0	2365.6
20.48	2281.0	2365.1
20.49	2291.0	2364.5
20.5	2393.0	2364.0
20.51	2358.0	2363.4
20.52	2362.0	2362.9
20.53	2394.0	2362.3
20.54	2383.0	2361.8
20.55	2378.0	2361.2
20.56	2360.0	2360.7
20.57	2334.0	2360.1
20.58	2316.0	2359.6
20.59	2369.0	2359.0
20.6	2366.0	2358.4
20.61	2361.0	2357.9
20.62	2339.0	2357.3
20.63	2295.0	2356.7
20.64	2320.0	2356.2
20.65	2365.0	2355.6
20.66	2378.0	2355.0
20.67	2309.0	2354.5
20.68	2276.0	2353.9
20.69	2287.0	2353.3
20.7	2319.0	2352.8
20.71	2367.0	2352.2
20.72	2357.0	2351.6
20.73	2332.0	2351.0
20.74	2374.0	2350.5
20.75	2385.0	2349.9
20.76	2366.0	2349.3
20.77	2345.0	2348.7
20.78	2292.0	2348.1
20.79	2319.0	2347.5
20.8	2312.0	2347.0
20.81	2312.0	2346.4
20.82	2328.0	2345.8
20.83	2348.0	2345.2
20.84	2334.0	2344.6
20.85	2323.0	2344.0
20.86	2323.0	2343.4
20.87	2317.0	2342.8
20.88	2328.0	2342.3
20.89	2386.0	2341.7
20.9	2415.0	2341.1
20.91	2389.0	2340.5
20.92	2353.0	2339.9
20.93	2277.0	2339.3
20.94	2269.0	2338.7
20.95	2305.0	2338.1
20.96	2373.0	2337.5
20.97	2328.0	2336.9
20.98	2316.0	2336.3
20.99	2304.0	2335.7
21.0	2247.0	2335.1
21.01	2259.0	2334.4
21.02	2306.0	2333.8
21.03	2315.0	2333.2
21.04	2353.0	2332.6
21.05	2300.0	2332.0
21.06	2246.0	2331.4
21.07	2305.0	2330.8
21.08	2310.0	2330.2
21.09	2315.0	2329.6
21.1	2310.0	2328.9
21.11	2354.0	2328.3
21.12	2325.0	2327.7
21.13	2333.0	2327.1
21.14	2356.0	2326.5
21.15	2327.0	2325.8
21.16	2347.0	2325.2
21.17	2296.0	2324.6
21.18	2302.0	2324.0
21.19	2325.0	2323.4
21.2	2304.0	2322.7
21.21	2255.0	2322.1
21.22	2271.0	2321.5
21.23	2267.0	2320.8
21.24	2301.0	2320.2
21.25	2314.0	2319.6
21.26	2309.0	2318.9
21.27	2336.0	2318.3
21.28	2309.0	2317.7
21.29	2288.0	2317.0
21.3	2341.0	2316.4
21.31	2301.0	2315.8
21.32	2277.0	2315.1
21.33	2311.0	2314.5
21.34	2336.0	2313.9
21.35	2306.0	2313.2
21.36	2291.0	2312.6
21.37	2251.0	2311.9
21.38	2283.0	2311.3
21.39	2306.0	2310.6
21.4	2356.0	2310.0
21.41	2352.0	2309.4
21.42	2292.0	2308.7
21.43	2292.0	2308.1
21.44	2289.0	2307.4
21.45	2346.0	2306.8
21.46	2353.0	2306.1
21.47	2348.0	2305.5
21.48	2331.0	2304.8
21.49	2275.0	2304.2
21.5	2284.0	2303.5
21.51	2265.0	2302.8
21.52	2263.0	2302.2
21.53	2280.0	2301.5
21.54	2370.0	2300.9
21.55	2270.0	2300.2
21.56	2222.0	2299.6
21.57	2253.0	2298.9
21.58	2263.0	2298.2
21.59	2244.0	2297.6
21.6	2223.0	2296.9
21.61	2304.0	2296.2
21.62	2280.0	2295.6
21.63	2231.0	2294.9
21.64	2236.0	2294.2
21.65	2245.0	2293.6
21.66	2264.0	2292.9
21.67	2265.0	2292.2
21.68	2290.0	2291.6
21.69	2299.0	2290.9
21.7	2306.0	2290.2
21.71	2261.0	2289.6
21.72	2218.0	2288.9
21.73	2254.0	2288.2
21.74	2264.0	2287.5
21.75	2258.0	2286.9
21.76	2282.0	2286.2
21.77	2243.0	2285.5
21.78	2202.0	2284.8
21.79	2288.0	2284.1
21.8	2271.0	2283.5
21.81	2294.0	2282.8
21.82	2245.0	2282.1
21.83	2236.0	2281.4
21.84	2235.0	2280.7
21.85	2275.0	2280.1
21.86	2266.0	2279.4
21.87	2230.0	2278.7
21.88	2184.0	2278.0
21.89	2243.0	2277.3
21.9	2222.0	2276.6
21.91	2219.0	2275.9
21.92	2223.0	2275.2
21.93	2203.0	2274.6
21.94	2208.0	2273.9
21.95	2276.0	2273.2
21.96	2203.0	2272.5
21.97	2240.0	2271.8
21.98	2246.0	2271.1
21.99	2254.0	2270.4
22.0	2224.0	2269.7
22.01	2260.0	2269.0
22.02	2255.0	2268.3
22.03	2242.0	2267.6
22.04	2226.0	2266.9
22.05	2184.0	2266.2
22.06	2153.0	2265.5
22.07	2251.0	2264.8
22.08	2267.0	2264.1
22.09	2238.0	2263.4
22.1	2279.0	2262.7
22.11	2234.0	2262.0
22.12	2248.0	2261.3
22.13	2251.0	2260.6
22.14	2219.0	2259.9
22.15	2251.0	2259.2
22.16	2215.0	2258.5
22.17	2195.0	2257.8
22.18	2217.0	2257.1
22.19	2277.0	2256.4
22.2	2204.0	2255.6
22.21	2259.0	2254.9
22.22	2246.0	2254.2
22.23	2234.0	2253.5
22.24	2195.0	2252.8
22.25	2169.0	2252.1
22.26	2194.0	2251.4
22.27	2208.0	2250.7
22.28	2234.0	2249.9
22.29	2200.0	2249.2
22.3	2211.0	2248.5
22.31	2205.0	2247.8
22.32	2180.0	2247.1
22.33	2196.0	2246.4
22.34	2232.0	2245.6
22.35	2219.0	2244.9
22.36	2164.0	2244.2
22.37	2202.0	2243.5
22.38	2163.0	2242.8
22.39	2230.0	2242.0
22.4	2152.0	2241.3
22.41	2173.0	2240.6
22.42	2277.0	2239.9
22.43	2266.0	2239.1
22.44	2242.0	2238.4
22.45	2210.0	2237.7
22.46	2226.0	2237.0
22.47	2200.0	2236.2
22.48	2209.0	2235.5
22.49	2230.0	2234.8
22.5	2265.0	2234.1
22.51	2221.0	2233.3
22.52	2173.0	2232.6
22.53	2160.0	2231.9
22.54	2196.0	2231.1
22.55	2180.0	2230.4
22.56	2203.0	2229.7
22.57	2161.0	2228.9
22.58	2150.0	2228.2
22.59	2186.0	2227.5
22.6	2160.0	2226.7
22.61	2200.0	2226.0
22.62	2263.0	2225.3
22.63	2216.0	2224.5
22.64	2253.0	2223.8
22.65	2215.0	2223.1
22.66	2169.0	2222.3
22.67	2162.0	2221.6
22.68	2211.0	2220.8
22.69	2207.0	2220.1
22.7	2205.0	2219.4
22.71	2251.0	2218.6
22.72	2177.0	2217.9
22.73	2208.0	2217.1
22.74	2206.0	2216.4
22.75	2181.0	2215.7
22.76	2142.0	2214.9
22.77	2167.0	2214.2
22.78	2209.0	2213.4
22.79	2187.0	2212.7
22.8	2240.0	2211.9
22.81	2191.0	2211.2
22.82	2142.0	2210.4
22.83	2188.0	2209.7
22.84	2197.0	2209.0
22.85	2162.0	2208.2
22.86	2164.0	2207.5
22.87	2137.0	2206.7
22.88	2150.0	2206.0
22.89	2196.0	2205.2
22.9	2191.0	2204.5
22.91	2214.0	2203.7
22.92	2200.0	2203.0
22.93	2257.0	2202.2
22.94	2251.0	2201.5
22.95	2196.0	2200.7
22.96	2148.0	2200.0
22.97	2168.0	2199.2
22.98	2187.0	2198.5
22.99	2122.0	2197.7
23.0	2130.0	2196.9
23.01	2218.0	2196.2
23.02	2147.0	2195.4
23.03	2186.0	2194.7
23.04	2246.0	2193.9
23.05	2172.0	2193.2
23.06	2211.0	2192.4
23.07	2242.0	2191.7
23.08	2131.0	2190.9
23.09	2139.0	2190.1
23.1	2195.0	2189.4
23.11	2159.0	2188.6
23.12	2125.0	2187.9
23.13	2164.0	2187.1
23.14	2186.0	2186.3
23.15	2193.0	2185.6
23.16	2181.0	2184.8
23.17	2181.0	2184.1
23.18	2156.0	2183.3
23.19	2135.0	2182.5
23.2	2114.0	2181.8
23.21	2129.0	2181.0
23.22	2206.0	2180.3
23.23	2128.0	2179.5
23.24	2117.0	2178.7
23.25	2194.0	2178.0
23.26	2141.0	2177.2
23.27	2103.0	2176.4
23.28	2137.0	2175.7
23.29	2171.0	2174.9
23.3	2143.0	2174.1
23.31	2149.0	2173.4
23.32	2194.0	2172.6
23.33	2167.0	2171.8
23.34	2109.0	2171.1
23.35	2133.0	2170.3
23.36	2169.0	2169.5
23.37	2132.0	2168.8
23.38	2119.0	2168.0
23.39	2211.0	2167.2
23.4	2205.0	2166.5
23.41	2141.0	2165.7
23.42	2182.0	2164.9
23.43	2135.0	2164.2
23.44	2087.0	2163.4
23.45	2125.0	2162.6
23.46	2103.0	2161.8
23.47	2175.0	2161.1
23.48	2184.0	2160.3
23.49	2156.0	2159.5
23.5	2167.0	2158.8
23.51	2175.0	2158.0
23.52	2122.0	2157.2
23.53	2123.0	2156.4
23.54	2126.0	2155.7
23.55	2155.0	2154.9
23.56	2134.0	2154.1
23.57	2115.0	2153.3
23.58	2185.0	2152.6
23.59	2212.0	2151.8
23.6	2223.0	2151.0
23.61	2207.0	2150.2
23.62	2163.0	2149.5
23.63	2176.0	2148.7
23.64	2190.0	2147.9
23.65	2166.0	2147.1
23.66	2186.0	2146.4
23.67	2159.0	2145.6
23.68	2127.0	2144.8
23.69	2150.0	2144.0
23.7	2127.0	2143.3
23.71	2179.0	2142.5
23.72	2200.0	2141.7
23.73	2169.0	2140.9
23.74	2138.0	2140.2
23.75	2141.0	2139.4
23.76	2166.0	2138.6
23.77	2162.0	2137.8
23.78	2150.0	2137.0
23.79	2156.0	2136.3
23.8	2140.0	2135.5
23.81	2121.0	2134.7
23.82	2136.0	2133.9
23.83	2155.0	2133.1
23.84	2106.0	2132.4
23.85	2128.0	2131.6
23.86	2123.0	2130.8
23.87	2187.0	2130.0
23.88	2175.0	2129.2
23.89	2185.0	2128.5
23.9	2146.0	2127.7
23.91	2139.0	2126.9
23.92	2124.0	2126.1
23.93	2157.0	2125.3
23.94	2170.0	2124.6
23.95	2144.0	2123.8
23.96	2096.0	2123.0
23.97	2066.0	2122.2
23.98	2059.0	2121.4
23.99	2075.0	2120.7
24.0	2122.0	2119.9
24.01	2126.0	2119.1
24.02	2169.0	2118.3
24.03	2155.0	2117.5
24.04	2143.0	2116.7
24.05	2138.0	2116.0
24.06	2158.0	2115.2
24.07	2154.0	2114.4
24.08	2139.0	2113.6
24.09	2158.0	2112.8
24.1	2141.0	2112.0
24.11	2154.0	2111.3
24.12	2122.0	2110.5
24.13	2150.0	2109.7
24.14	2194.0	2108.9
24.15	2177.0	2108.1
24.16	2102.0	2107.3
24.17	2095.0	2106.6
24.18	2144.0	2105.8
24.19	2150.0	2105.0
24.2	2149.0	2104.2
24.21	2151.0	2103.4
24.22	2084.0	2102.6
24.23	2099.0	2101.9
24.24	2143.0	2101.1
24.25	2172.0	2100.3
24.26	2150.0	2099.5
24.27	2114.0	2098.7
24.28	2110.0	2097.9
24.29	2167.0	2097.2
24.3	2177.0	2096.4
24.31	2101.0	2095.6
24.32	2113.0	2094.8
24.33	2194.0	2094.0
24.34	2183.0	2093.2
24.35	2151.0	2092.4
24.36	2071.0	2091.7
24.37	2112.0	2090.9
24.38	2131.0	2090.1
24.39	2185.0	2089.3
24.4	2168.0	2088.5
24.41	2165.0	2087.7
24.42	2150.0	2087.0
24.43	2117.0	2086.2
24.44	2159.0	2085.4
24.45	2158.0	2084.6
24.46	2115.0	2083.8
24.47	2109.0	2083.0
24.48	2099.0	2082.2
24.49	2106.0	2081.5
24.5	2124.0	2080.7
24.51	2141.0	2079.9
24.52	2116.0	2079.1
24.53	2159.0	2078.3
24.54	2198.0	2077.5
24.55	2189.0	2076.8
24.56	2177.0	2076.0
24.57	2177.0	2075.2
24.58	2141.0	2074.4
24.59	2150.0	2073.6
24.6	2152.0	2072.8
24.61	2135.0	2072.1
24.62	2116.0	2071.3
24.63	2128.0	2070.5
24.64	2148.0	2069.7
24.65	2146.0	2068.9
24.66	2172.0	2068.1
24.67	2153.0	2067.4
24.68	2140.0	2066.6
24.69	2143.0	2065.8
24.7	2160.0	2065.0
24.71	2148.0	2064.2
24.72	2150.0	2063.4
24.73	2175.0	2062.7
24.74	2142.0	2061.9
24.75	2186.0	2061.1
24.76	2218.0	2060.3
24.77	2202.0	2059.5
24.78	2165.0	2058.7
24.79	2182.0	2058.0
24.8	2143.0	2057.2
24.81	2117.0	2056.4
24.82	2163.0	2055.6
24.83	2190.0	2054.8
24.84	2174.0	2054.1
24.85	2192.0	2053.3
24.86	2167.0	2052.5
24.87	2147.0	2051.7
24.88	2102.0	2050.9
24.89	2127.0	2050.1
24.9	2132.0	2049.4
24.91	2124.0	2048.6
24.92	2085.0	2047.8
24.93	2110.0	2047.0
24.94	2154.0	2046.2
24.95	2151.0	2045.5
24.96	2126.0	2044.7
24.97	2150.0	2043.9
24.98	2111.0	2043.1
24.99	2046.0	2042.3
25.0	2092.0	2041.6
25.01	2172.0	2040.8
25.02	2135.0	2040.0
25.03	2104.0	2039.2
25.04	2146.0	2038.5
25.05	2194.0	2037.7
25.06	2143.0	2036.9
25.07	2115.0	2036.1
25.08	2131.0	2035.3
25.09	2156.0	2034.6
25.1	2164.0	2033.8
25.11	2144.0	2033.0
25.12	2119.0	2032.2
25.13	2118.0	2031.5
25.14	2114.0	2030.7
25.15	2111.0	2029.9
25.16	2109.0	2029.1
25.17	2080.0	2028.4
25.18	2074.0	2027.6
25.19	2058.0	2026.8
25.2	2084.0	2026.0
25.21	2104.0	2025.3
25.22	2081.0	2024.5
25.23	2098.0	2023.7
25.24	2085.0	2022.9
25.25	2088.0	2022.2
25.26	2112.0	2021.4
25.27	2076.0	2020.6
25.28	2003.0	2019.8
25.29	1992.0	2019.1
25.3	2001.0	2018.3
25.31	2043.0	2017.5
25.32	2056.0	2016.8
25.33	2033.0	2016.0
25.34	2026.0	2015.2
25.35	2056.0	2014.4
25.36	2055.0	2013.7
25.37	2054.0	2012.9
25.38	2084.0	2012.1
25.39	2125.0	2011.4
25.4	2095.0	2010.6
25.41	2069.0	2009.8
25.42	2056.0	2009.1
25.43	2085.0	2008.3
25.44	2110.0	2007.5
25.45	2115.0	2006.8
25.46	2106.0	2006.0
25.47	2082.0	2005.2
25.48	2060.0	2004.5
25.49	2034.0	2003.7
25.5	2021.0	2002.9
25.51	2027.0	2002.2
25.52	2059.0	2001.4
25.53	2076.0	2000.6
25.54	2092.0	1999.9
25.55	2055.0	1999.1
25.56	2040.0	1998.3
25.57	2045.0	1997.6
25.58	2050.0	1996.8
25.59	2017.0	1996.0
25.6	2015.0	1995.3
25.61	1994.0	1994.5
25.62	1983.0	1993.8
25.63	2011.0	1993.0
25.64	2050.0	1992.2
25.65	2062.0	1991.5
25.66	2076.0	1990.7
25.67	2066.0	1990.0
25.68	2032.0	1989.2
25.69	2003.0	1988.4
25.7	1978.0	1987.7
25.71	1981.0	1986.9
25.72	1997.0	1986.2
25.73	2015.0	1985.4
25.74	2009.0	1984.7
25.75	1999.0	1983.9
25.76	2005.0	1983.1
25.77	1994.0	1982.4
25.78	1974.0	1981.6
25.79	2009.0	1980.9
25.8	2053.0	1980.1
25.81	2063.0	1979.4
25.82	2054.0	1978.6
25.83	2065.0	1977.9
25.84	2038.0	1977.1
25.85	2019.0	1976.4
25.86	2002.0	1975.6
25.87	1978.0	1974.9
25.88	1951.0	1974.1
25.89	1971.0	1973.4
25.9	2036.0	1972.6
25.91	2053.0	1971.9
25.92	2031.0	1971.1
25.93	2011.0	1970.4
25.94	2025.0	1969.6
25.95	2042.0	1968.9
25.96	2049.0	1968.1
25.97	2044.0	1967.4
25.98	2024.0	1966.6
25.99	1997.0	1965.9
26.0	1968.0	1965.1
26.01	1962.0	1964.4
26.02	1979.0	1963.6
26.03	2011.0	1962.9
26.04	2032.0	1962.2
26.05	2025.0	1961.4
26.06	2010.0	1960.7
26.07	1981.0	1959.9
26.08	1963.0	1959.2
26.09	1984.0	1958.4
26.1	1974.0	1957.7
26.11	1958.0	1957.0
26.12	1957.0	1956.2
26.13	1970.0	1955.5
26.14	1971.0	1954.8
26.15	1941.0	1954.0
26.16	1935.0	1953.3
26.17	1971.0	1952.5
26.18	2008.0	1951.8
26.19	1999.0	1951.1
26.2	1964.0	1950.3
26.21	1960.0	1949.6
26.22	1964.0	1948.9
26.23	1942.0	1948.1
26.24	1955.0	1947.4
26.25	1959.0	1946.7
26.26	1975.0	1945.9
26.27	2000.0	1945.2
26.28	1980.0	1944.5
26.29	1968.0	1943.8
26.3	1968.0	1943.0
26.31	1976.0	1942.3
26.32	1964.0	1941.6
26.33	1964.0	1940.8
26.34	1988.0	1940.1
26.35	1970.0	1939.4
26.36	1937.0	1938.7
26.37	1912.0	1937.9
26.38	1905.0	1937.2
26.39	1946.0	1936.5
26.4	1957.0	1935.8
26.41	1916.0	1935.0
26.42	1917.0	1934.3
26.43	1909.0	1933.6
26.44	1945.0	1932.9
26.45	1948.0	1932.2
26.46	1913.0	1931.4
26.47	1960.0	1930.7
26.48	1981.0	1930.0
26.49	1955.0	1929.3
26.5	1950.0	1928.6
26.51	1949.0	1927.9
26.52	1958.0	1927.1
26.53	1961.0	1926.4
26.54	1942.0	1925.7
26.55	1925.0	1925.0
26.56	1946.0	1924.3
26.57	1972.0	1923.6
26.58	1957.0	1922.9
26.59	1957.0	1922.2
26.6	1947.0	1921.4
26.61	1938.0	1920.7
26.62	1972.0	1920.0
26.63	1971.0	1919.3
26.64	1947.0	1918.6
26.65	1935.0	1917.9
26.66	1965.0	1917.2
26.67	1970.0	1916.5
26.68	1927.0	1915.8
26.69	1901.0	1915.1
26.7	1916.0	1914.4
26.71	1918.0	1913.7
26.72	1935.0	1913.0
26.73	1946.0	1912.3
26.74	1917.0	1911.6
26.75	1942.0	1910.9
26.76	1968.0	1910.2
26.77	1971.0	1909.5
26.78	1980.0	1908.8
26.79	1939.0	1908.1
26.8	1891.0	1907.4
26.81	1907.0	1906.7
26.82	1944.0	1906.0
26.83	1960.0	1905.3
26.84	1934.0	1904.6
26.85	1905.0	1903.9
26.86	1903.0	1903.2
26.87	1915.0	1902.5
26.88	1917.0	1901.9
26.89	1920.0	1901.2
26.9	1891.0	1900.5
26.91	1883.0	1899.8
26.92	1910.0	1899.1
26.93	1920.0	1898.4
26.94	1955.0	1897.7
26.95	1978.0	1897.1
26.96	1975.0	1896.4
26.97	1926.0	1895.7
26.98	1872.0	1895.0
26.99	1894.0	1894.3
27.0	1927.0	1893.6
27.01	1913.0	1893.0
27.02	1911.0	1892.3
27.03	1920.0	1891.6
27.04	1934.0	1890.9
27.05	1966.0	1890.3
27.06	1955.0	1889.6
27.07	1917.0	1888.9
27.08	1869.0	1888.2
27.09	1861.0	1887.6
27.1	1929.0	1886.9
27.11	1941.0	1886.2
27.12	1894.0	1885.5
27.13	1853.0	1884.9
27.14	1856.0	1884.2
27.15	1902.0	1883.5
27.16	1936.0	1882.9
27.17	1951.0	1882.2
27.18	1943.0	1881.5
27.19	1922.0	1880.9
27.2	1895.0	1880.2
27.21	1902.0	1879.5
27.22	1924.0	1878.9
27.23	1923.0	1878.2
27.24	1919.0	1877.6
27.25	1921.0	1876.9
27.26	1933.0	1876.2
27.27	1952.0	1875.6
27.28	1929.0	1874.9
27.29	1859.0	1874.3
27.3	1841.0	1873.6
27.31	1890.0	1873.0
27.32	1925.0	1872.3
27.33	1918.0	1871.7
27.34	1903.0	1871.0
27.35	1919.0	1870.4
27.36	1927.0	1869.7
27.37	1895.0	1869.1
27.38	1881.0	1868.4
27.39	1878.0	1867.8
27.4	1867.0	1867.1
27.41	1874.0	1866.5
27.42	1907.0	1865.8
27.43	1903.0	1865.2
27.44	1871.0	1864.6
27.45	1862.0	1863.9
27.46	1864.0	1863.3
27.47	1874.0	1862.6
27.48	1894.0	1862.0
27.49	1880.0	1861.4
27.5	1876.0	1860.7
27.51	1895.0	1860.1
27.52	1888.0	1859.4
27.53	1861.0	1858.8
27.54	1863.0	1858.2
27.55	1868.0	1857.6
27.56	1873.0	1856.9
27.57	1877.0	1856.3
27.58	1888.0	1855.7
27.59	1896.0	1855.0
27.6	1865.0	1854.4
27.61	1844.0	1853.8
27.62	1875.0	1853.2
27.63	1880.0	1852.5
27.64	1853.0	1851.9
27.65	1839.0	1851.3
27.66	1852.0	1850.7
27.67	1880.0	1850.1
27.68	1890.0	1849.4
27.69	1880.0	1848.8
27.7	1869.0	1848.2
27.71	1872.0	1847.6
27.72	1904.0	1847.0
27.73	1930.0	1846.4
27.74	1877.0	1845.7
27.75	1837.0	1845.1
27.76	1854.0	1844.5
27.77	1870.0	1843.9
27.78	1892.0	1843.3
27.79	1903.0	1842.7
27.8	1893.0	1842.1
27.81	1858.0	1841.5
27.82	1845.0	1840.9
27.83	1855.0	1840.3
27.84	1861.0	1839.7
27.85	1882.0	1839.1
27.86	1872.0	1838.5
27.87	1847.0	1837.9
27.88	1886.0	1837.3
27.89	1909.0	1836.7
27.9	1911.0	1836.1
27.91	1921.0	1835.5
27.92	1897.0	1834.9
27.93	1855.0	1834.3
27.94	1847.0	1833.7
27.95	1854.0	1833.1
27.96	1863.0	1832.5
27.97	1839.0	1831.9
27.98	1829.0	1831.4
27.99	1835.0	1830.8
28.0	1849.0	1830.2
28.01	1881.0	1829.6
28.02	1913.0	1829.0
28.03	1875.0	1828.4
28.04	1831.0	1827.9
28.05	1823.0	1827.3
28.06	1824.0	1826.7
28.07	1828.0	1826.1
28.08	1858.0	1825.6
28.09	1886.0	1825.0
28.1	1886.0	1824.4
28.11	1856.0	1823.8
28.12	1840.0	1823.3
28.13	1851.0	1822.7
28.14	1852.0	1822.1
28.15	1845.0	1821.6
28.16	1856.0	1821.0
28.17	1863.0	1820.4
28.18	1852.0	1819.9
28.19	1835.0	1819.3
28.2	1855.0	1818.7
28.21	1900.0	1818.2
28.22	1933.0	1817.6
28.23	1871.0	1817.1
28.24	1849.0	1816.5
28.25	1876.0	1815.9
28.26	1862.0	1815.4
28.27	1858.0	1814.8
28.28	1865.0	1814.3
28.29	1841.0	1813.7
28.3	1837.0	1813.2
28.31	1845.0	1812.6
28.32	1779.0	1812.1
28.33	1771.0	1811.5
28.34	1818.0	1811.0
28.35	1820.0	1810.4
28.36	1813.0	1809.9
28.37	1816.0	1809.4
28.38	1851.0	1808.8
28.39	1845.0	1808.3
28.4	1832.0	1807.7
28.41	1828.0	1807.2
28.42	1843.0	1806.7
28.43	1868.0	1806.1
28.44	1864.0	1805.6
28.45	1845.0	1805.1
28.46	1858.0	1804.5
28.47	1876.0	1804.0
28.48	1868.0	1803.5
28.49	1870.0	1802.9
28.5	1914.0	1802.4
28.51	1914.0	1801.9
28.52	1890.0	1801.4
28.53	1879.0	1800.8
28.54	1826.0	1800.3
28.55	1832.0	1799.8
28.56	1840.0	1799.3
28.57	1842.0	1798.8
28.58	1864.0	1798.2
28.59	1837.0	1797.7
28.6	1815.0	1797.2
28.61	1824.0	1796.7
28.62	1860.0	1796.2
28.63	1884.0	1795.7
28.64	1866.0	1795.2
28.65	1865.0	1794.7
28.66	1873.0	1794.1
28.67	1899.0	1793.6
28.68	1888.0	1793.1
28.69	1831.0	1792.6
28.7	1822.0	1792.1
28.71	1857.0	1791.6
28.72	1847.0	1791.1
28.73	1832.0	1790.6
28.74	1836.0	1790.1
28.75	1815.0	1789.6
28.76	1818.0	1789.1
28.77	1858.0	1788.6
28.78	1869.0	1788.1
28.79	1888.0	1787.7
28.8	1901.0	1787.2
28.81	1866.0	1786.7
28.82	1823.0	1786.2
28.83	1766.0	1785.7
28.84	1767.0	1785.2
28.85	1816.0	1784.7
28.86	1821.0	1784.2
28.87	1809.0	1783.8
28.88	1822.0	1783.3
28.89	1845.0	1782.8
28.9	1825.0	1782.3
28.91	1782.0	1781.8
28.92	1773.0	1781.4
28.93	1817.0	1780.9
28.94	1826.0	1780.4
28.95	1804.0	1779.9
28.96	1829.0	1779.5
28.97	1845.0	1779.0
28.98	1807.0	1778.5
28.99	1792.0	1778.1
29.0	1803.0	1777.6
29.01	1820.0	1777.1
29.02	1854.0	1776.7
29.03	1832.0	1776.2
29.04	1850.0	1775.7
29.05	1832.0	1775.3
29.06	1783.0	1774.8
29.07	1772.0	1774.4
29.08	1809.0	1773.9
29.09	1846.0	1773.5
29.1	1835.0	1773.0
29.11	1813.0	1772.5
29.12	1790.0	1772.1
29.13	1781.0	1771.6
29.14	1810.0	1771.2
29.15	1837.0	1770.7
29.16	1835.0	1770.3
29.17	1815.0	1769.9
29.18	1788.0	1769.4
29.19	1782.0	1769.0
29.2	1776.0	1768.5
29.21	1771.0	1768.1
29.22	1771.0	1767.6
29.23	1786.0	1767.2
29.24	1774.0	1766.8
29.25	1714.0	1766.3
29.26	1737.0	1765.9
29.27	1752.0	1765.5
29.28	1802.0	1765.0
29.29	1806.0	1764.6
29.3	1819.0	1764.2
29.31	1851.0	1763.7
29.32	1869.0	1763.3
29.33	1809.0	1762.9
29.34	1764.0	1762.5
29.35	1815.0	1762.0
29.36	1865.0	1761.6
29.37	1805.0	1761.2
29.38	1778.0	1760.8
29.39	1767.0	1760.4
29.4	1777.0	1760.0
29.41	1768.0	1759.5
29.42	1795.0	1759.1
29.43	1799.0	1758.7
29.44	1756.0	1758.3
29.45	1810.0	1757.9
29.46	1865.0	1757.5
29.47	1828.0	1757.1
29.48	1821.0	1756.7
29.49	1825.0	1756.3
29.5	1799.0	1755.9
29.51	1791.0	1755.5
29.52	1827.0	1755.1
29.53	1827.0	1754.7
29.54	1802.0	1754.3
29.55	1812.0	1753.9
29.56	1845.0	1753.5
29.57	1788.0	1753.1
29.58	1778.0	1752.7
29.59	1800.0	1752.3
29.6	1781.0	1751.9
29.61	1810.0	1751.5
29.62	1807.0	1751.1
29.63	1800.0	1750.7
29.64	1826.0	1750.4
29.65	1864.0	1750.0
29.66	1828.0	1749.6
29.67	1761.0	1749.2
29.68	1771.0	1748.8
29.69	1787.0	1748.4
29.7	1809.0	1748.1
29.71	1831.0	1747.7
29.72	1819.0	1747.3
29.73	1796.0	1746.9
29.74	1842.0	1746.6
29.75	1832.0	1746.2
29.76	1818.0	1745.8
29.77	1810.0	1745.5
29.78	1789.0	1745.1
29.79	1773.0	1744.7
29.8	1759.0	1744.4
29.81	1749.0	1744.0
29.82	1802.0	1743.6
29.83	1835.0	1743.3
29.84	1863.0	1742.9
29.85	1790.0	1742.6
29.86	1788.0	1742.2
29.87	1824.0	1741.9
29.88	1827.0	1741.5
29.89	1802.0	1741.2
29.9	1825.0	1740.8
29.91	1766.0	1740.4
29.92	1752.0	1740.1
29.93	1760.0	1739.8
29.94	1770.0	1739.4
29.95	1765.0	1739.1
29.96	1791.0	1738.7
29.97	1820.0	1738.4
29.98	1810.0	1738.0
29.99	1769.0	1737.7
30.0	1732.0	1737.4
30.01	1740.0	1737.0
30.02	1787.0	1736.7
30.03	1850.0	1736.4
30.04	1794.0	1736.0
30.05	1742.0	1735.7
30.06	1782.0	1735.4
30.07	1806.0	1735.0
30.08	1797.0	1734.7
30.09	1789.0	1734.4
30.1	1787.0	1734.1
30.11	1779.0	1733.7
30.12	1816.0	1733.4
30.13	1804.0	1733.1
30.14	1771.0	1732.8
30.15	1745.0	1732.5
30.16	1785.0	1732.2
30.17	1809.0	1731.8
30.18	1805.0	1731.5
30.19	1831.0	1731.2
30.2	1808.0	1730.9
30.21	1813.0	1730.6
30.22	1769.0	1730.3
30.23	1784.0	1730.0
30.24	1789.0	1729.7
30.25	1803.0	1729.4
30.26	1795.0	1729.1
30.27	1781.0	1728.8
30.28	1828.0	1728.5
30.29	1828.0	1728.2
30.3	1777.0	1727.9
30.31	1757.0	1727.6
30.32	1789.0	1727.3
30.33	1803.0	1727.0
30.34	1807.0	1726.7
30.35	1770.0	1726.4
30.36	1770.0	1726.1
30.37	1814.0	1725.8
30.38	1777.0	1725.6
30.39	1721.0	1725.3
30.4	1780.0	1725.0
30.41	1798.0	1724.7
30.42	1789.0	1724.4
30.43	1794.0	1724.2
30.44	1808.0	1723.9
30.45	1763.0	1723.6
30.46	1777.0	1723.3
30.47	1802.0	1723.1
30.48	1808.0	1722.8
30.49	1813.0	1722.5
30.5	1761.0	1722.2
30.51	1742.0	1722.0
30.52	1740.0	1721.7
30.53	1808.0	1721.4
30.54	1808.0	1721.2
30.55	1806.0	1720.9
30.56	1777.0	1720.7
30.57	1762.0	1720.4
30.58	1828.0	1720.1
30.59	1857.0	1719.9
30.6	1797.0	1719.6
30.61	1797.0	1719.4
30.62	1822.0	1719.1
30.63	1790.0	1718.9
30.64	1754.0	1718.6
30.65	1750.0	1718.4
30.66	1771.0	1718.1
30.67	1817.0	1717.9
30.68	1853.0	1717.7
30.69	1806.0	1717.4
30.7	1824.0	1717.2
30.71	1845.0	1716.9
30.72	1824.0	1716.7
30.73	1805.0	1716.5
30.74	1787.0	1716.2
30.75	1793.0	1716.0
30.76	1805.0	1715.8
30.77	1779.0	1715.5
30.78	1799.0	1715.3
30.79	1836.0	1715.1
30.8	1771.0	1714.9
30.81	1754.0	1714.6
30.82	1783.0	1714.4
30.83	1815.0	1714.2
30.84	1872.0	1714.0
30.85	1810.0	1713.7
30.86	1732.0	1713.5
30.87	1812.0	1713.3
30.88	1804.0	1713.1
30.89	1774.0	1712.9
30.9	1820.0	1712.7
30.91	1802.0	1712.5
30.92	1748.0	1712.3
30.93	1754.0	1712.1
30.94	1744.0	1711.8
30.95	1726.0	1711.6
30.96	1752.0	1711.4
30.97	1761.0	1711.2
30.98	1743.0	1711.0
30.99	1778.0	1710.8
31.0	1811.0	1710.6
31.01	1788.0	1710.4
31.02	1777.0	1710.3
31.03	1793.0	1710.1
31.04	1810.0	1709.9
31.05	1796.0	1709.7
31.06	1781.0	1709.5
31.07	1789.0	1709.3
31.08	1753.0	1709.1
31.09	1714.0	1708.9
31.1	1810.0	1708.8
31.11	1862.0	1708.6
31.12	1861.0	1708.4
31.13	1799.0	1708.2
31.14	1780.0	1708.0
31.15	1756.0	1707.9
31.16	1730.0	1707.7
31.17	1787.0	1707.5
31.18	1829.0	1707.4
31.19	1831.0	1707.2
31.2	1823.0	1707.0
31.21	1783.0	1706.9
31.22	1755.0	1706.7
31.23	1777.0	1706.5
31.24	1798.0	1706.4
31.25	1796.0	1706.2
31.26	1802.0	1706.1
31.27	1787.0	1705.9
31.28	1762.0	1705.7
31.29	1730.0	1705.6
31.3	1736.0	1705.4
31.31	1764.0	1705.3
31.32	1764.0	1705.1
31.33	1826.0	1705.0
31.34	1747.0	1704.8
31.35	1776.0	1704.7
31.36	1833.0	1704.6
31.37	1808.0	1704.4
31.38	1808.0	1704.3
31.39	1788.0	1704.1
31.4	1794.0	1704.0
31.41	1802.0	1703.9
31.42	1816.0	1703.7
31.43	1828.0	1703.6
31.44	1817.0	1703.5
31.45	1802.0	1703.3
31.46	1798.0	1703.2
31.47	1809.0	1703.1
31.48	1779.0	1703.0
31.49	1804.0	1702.8
31.5	1829.0	1702.7
31.51	1834.0	1702.6
31.52	1752.0	1702.5
31.53	1790.0	1702.3
31.54	1721.0	1702.2
31.55	1798.0	1702.1
31.56	1787.0	1702.0
31.57	1796.0	1701.9
31.58	1838.0	1701.8
31.59	1816.0	1701.7
31.6	1770.0	1701.6
31.61	1792.0	1701.5
31.62	1766.0	1701.4
31.63	1759.0	1701.3
31.64	1814.0	1701.2
31.65	1784.0	1701.1
31.66	1784.0	1701.0
31.67	1794.0	1700.9
31.68	1781.0	1700.8
31.69	1766.0	1700.7
31.7	1795.0	1700.6
31.71	1814.0	1700.5
31.72	1788.0	1700.4
31.73	1794.0	1700.3
31.74	1803.0	1700.2
31.75	1796.0	1700.2
31.76	1739.0	1700.1
31.77	1756.0	1700.0
31.78	1807.0	1699.9
31.79	1820.0	1699.8
31.8	1757.0	1699.8
31.81	1763.0	1699.7
31.82	1713.0	1699.6
31.83	1720.0	1699.5
31.84	1752.0	1699.5
31.85	1745.0	1699.4
31.86	1739.0	1699.3
31.87	1788.0	1699.3
31.88	1805.0	1699.2
31.89	1789.0	1699.1
31.9	1743.0	1699.1
31.91	1768.0	1699.0
31.92	1808.0	1699.0
31.93	1802.0	1698.9
31.94	1780.0	1698.9
31.95	1826.0	1698.8
31.96	1815.0	1698.8
31.97	1752.0	1698.7
31.98	1758.0	1698.7
31.99	1790.0	1698.6
32.0	1739.0	1698.6
32.01	1753.0	1698.5
32.02	1769.0	1698.5
32.03	1734.0	1698.4
32.04	1697.0	1698.4
32.05	1717.0	1698.4
32.06	1787.0	1698.3
32.07	1749.0	1698.3
32.08	1771.0	1698.3
32.09	1785.0	1698.2
32.1	1788.0	1698.2
32.11	1824.0	1698.2
32.12	1800.0	1698.2
32.13	1771.0	1698.1
32.14	1750.0	1698.1
32.15	1731.0	1698.1
32.16	1751.0	1698.1
32.17	1708.0	1698.1
32.18	1733.0	1698.0
32.19	1795.0	1698.0
32.2	1756.0	1698.0
32.21	1703.0	1698.0
32.22	1713.0	1698.0
32.23	1733.0	1698.0
32.24	1778.0	1698.0
32.25	1757.0	1698.0
32.26	1759.0	1698.0
32.27	1726.0	1698.0
32.28	1727.0	1698.0
32.29	1770.0	1698.0
32.3	1753.0	1698.0
32.31	1715.0	1698.0
32.32	1725.0	1698.0
32.33	1759.0	1698.0
32.34	1770.0	1698.0
32.35	1780.0	1698.0
32.36	1815.0	1698.0
32.37	1758.0	1698.0
32.38	1752.0	1698.1
32.39	1780.0	1698.1
32.4	1815.0	1698.1
32.41	1791.0	1698.1
32.42	1733.0	1698.1
32.43	1760.0	1698.2
32.44	1795.0	1698.2
32.45	1753.0	1698.2
32.46	1776.0	1698.3
32.47	1726.0	1698.3
32.48	1741.0	1698.3
32.49	1771.0	1698.4
32.5	1751.0	1698.4
32.51	1747.0	1698.4
32.52	1733.0	1698.5
32.53	1718.0	1698.5
32.54	1781.0	1698.5
32.55	1759.0	1698.6
32.56	1741.0	1698.6
32.57	1821.0	1698.7
32.58	1758.0	1698.7
32.59	1742.0	1698.8
32.6	1739.0	1698.8
32.61	1751.0	1698.9
32.62	1701.0	1698.9
32.63	1738.0	1699.0
32.64	1758.0	1699.1
32.65	1806.0	1699.1
32.66	1806.0	1699.2
32.67	1749.0	1699.2
32.68	1734.0	1699.3
32.69	1764.0	1699.4
32.7	1747.0	1699.5
32.71	1719.0	1699.5
32.72	1729.0	1699.6
32.73	1774.0	1699.7
32.74	1724.0	1699.7
32.75	1686.0	1699.8
32.76	1715.0	1699.9
32.77	1743.0	1700.0
32.78	1737.0	1700.1
32.79	1745.0	1700.1
32.8	1760.0	1700.2
32.81	1730.0	1700.3
32.82	1692.0	1700.4
32.83	1754.0	1700.5
32.84	1777.0	1700.6
32.85	1760.0	1700.7
32.86	1749.0	1700.8
32.87	1707.0	1700.9
32.88	1733.0	1701.0
32.89	1747.0	1701.1
32.9	1689.0	1701.2
32.91	1696.0	1701.3
32.92	1751.0	1701.4
32.93	1746.0	1701.5
32.94	1734.0	1701.6
32.95	1746.0	1701.7
32.96	1768.0	1701.8
32.97	1753.0	1701.9
32.98	1714.0	1702.1
32.99	1702.0	1702.2
33.0	1743.0	1702.3
33.01	1740.0	1702.4
33.02	1746.0	1702.5
33.03	1758.0	1702.7
33.04	1812.0	1702.8
33.05	1734.0	1702.9
33.06	1766.0	1703.0
33.07	1752.0	1703.2
33.08	1730.0	1703.3
33.09	1729.0	1703.4
33.1	1732.0	1703.6
33.11	1754.0	1703.7
33.12	1726.0	1703.9
33.13	1683.0	1704.0
33.14	1701.0	1704.1
33.15	1730.0	1704.3
33.16	1701.0	1704.4
33.17	1686.0	1704.6
33.18	1736.0	1704.7
33.19	1717.0	1704.9
33.2	1713.0	1705.0
33.21	1752.0	1705.2
33.22	1748.0	1705.3
33.23	1775.0	1705.5
33.24	1717.0	1705.7
33.25	1753.0	1705.8
33.26	1727.0	1706.0
33.27	1769.0	1706.2
33.28	1764.0	1706.3
33.29	1744.0	1706.5
33.3	1701.0	1706.7
33.31	1711.0	1706.8
33.32	1733.0	1707.0
33.33	1732.0	1707.2
33.34	1768.0	1707.4
33.35	1752.0	1707.5
33.36	1742.0	1707.7
33.37	1715.0	1707.9
33.38	1746.0	1708.1
33.39	1793.0	1708.3
33.4	1746.0	1708.5
33.41	1721.0	1708.6
33.42	1709.0	1708.8
33.43	1756.0	1709.0
33.44	1777.0	1709.2
33.45	1769.0	1709.4
33.46	1751.0	1709.6
33.47	1752.0	1709.8
33.48	1739.0	1710.0
33.49	1769.0	1710.2
33.5	1779.0	1710.4
33.51	1720.0	1710.6
33.52	1742.0	1710.8
33.53	1751.0	1711.1
33.54	1744.0	1711.3
33.55	1744.0	1711.5
33.56	1763.0	1711.7
33.57	1770.0	1711.9
33.58	1743.0	1712.1
33.59	1750.0	1712.4
33.6	1775.0	1712.6
33.61	1779.0	1712.8
33.62	1750.0	1713.0
33.63	1696.0	1713.3
33.64	1670.0	1713.5
33.65	1743.0	1713.7
33.66	1753.0	1714.0
33.67	1770.0	1714.2
33.68	1786.0	1714.4
33.69	1734.0	1714.7
33.7	1726.0	1714.9
33.71	1715.0	1715.1
33.72	1708.0	1715.4
33.73	1705.0	1715.6
33.74	1775.0	1715.9
33.75	1812.0	1716.1
33.76	1795.0	1716.4
33.77	1787.0	1716.6
33.78	1785.0	1716.9
33.79	1762.0	1717.1
33.8	1741.0	1717.4
33.81	1714.0	1717.7
33.82	1717.0	1717.9
33.83	1733.0	1718.2
33.84	1752.0	1718.4
33.85	1731.0	1718.7
33.86	1752.0	1719.0
33.87	1778.0	1719.2
33.88	1773.0	1719.5
33.89	1758.0	1719.8
33.9	1762.0	1720.1
33.91	1734.0	1720.3
33.92	1738.0	1720.6
33.93	1775.0	1720.9
33.94	1767.0	1721.2
33.95	1730.0	1721.4
33.96	1736.0	1721.7
33.97	1757.0	1722.0
33.98	1754.0	1722.3
33.99	1775.0	1722.6
34.0	1768.0	1722.9
34.01	1752.0	1723.2
34.02	1725.0	1723.5
34.03	1729.0	1723.8
34.04	1773.0	1724.0
34.05	1792.0	1724.3
34.06	1791.0	1724.6
34.07	1784.0	1724.9
34.08	1757.0	1725.2
34.09	1791.0	1725.5
34.1	1780.0	1725.8
34.11	1766.0	1726.2
34.12	1783.0	1726.5
34.13	1785.0	1726.8
34.14	1787.0	1727.1
34.15	1777.0	1727.4
34.16	1764.0	1727.7
34.17	1751.0	1728.0
34.18	1743.0	1728.3
34.19	1750.0	1728.6
34.2	1746.0	1729.0
34.21	1769.0	1729.3
34.22	1789.0	1729.6
34.23	1757.0	1729.9
34.24	1752.0	1730.2
34.25	1753.0	1730.6
34.26	1732.0	1730.9
34.27	1711.0	1731.2
34.28	1752.0	1731.5
34.29	1773.0	1731.9
34.3	1747.0	1732.2
34.31	1746.0	1732.5
34.32	1784.0	1732.9
34.33	1786.0	1733.2
34.34	1770.0	1733.5
34.35	1765.0	1733.9
34.36	1758.0	1734.2
34.37	1765.0	1734.6
34.38	1784.0	1734.9
34.39	1785.0	1735.2
34.4	1762.0	1735.6
34.41	1741.0	1735.9
34.42	1778.0	1736.3
34.43	1779.0	1736.6
34.44	1745.0	1737.0
34.45	1753.0	1737.3
34.46	1776.0	1737.7
34.47	1757.0	1738.0
34.48	1791.0	1738.4
34.49	1798.0	1738.7
34.5	1760.0	1739.1
34.51	1792.0	1739.4
34.52	1793.0	1739.8
34.53	1778.0	1740.1
34.54	1803.0	1740.5
34.55	1793.0	1740.9
34.56	1784.0	1741.2
34.57	1799.0	1741.6
34.58	1784.0	1741.9
34.59	1748.0	1742.3
34.6	1754.0	1742.7
34.61	1755.0	1743.0
34.62	1763.0	1743.4
34.63	1800.0	1743.8
34.64	1813.0	1744.2
34.65	1811.0	1744.5
34.66	1796.0	1744.9
34.67	1765.0	1745.3
34.68	1797.0	1745.6
34.69	1795.0	1746.0
34.7	1765.0	1746.4
34.71	1771.0	1746.8
34.72	1785.0	1747.1
34.73	1757.0	1747.5
34.74	1749.0	1747.9
34.75	1785.0	1748.3
34.76	1830.0	1748.7
34.77	1816.0	1749.0
34.78	1822.0	1749.4
34.79	1817.0	1749.8
34.8	1793.0	1750.2
34.81	1828.0	1750.6
34.82	1867.0	1751.0
34.83	1846.0	1751.4
34.84	1814.0	1751.8
34.85	1789.0	1752.1
34.86	1819.0	1752.5
34.87	1837.0	1752.9
34.88	1833.0	1753.3
34.89	1815.0	1753.7
34.9	1846.0	1754.1
34.91	1857.0	1754.5
34.92	1873.0	1754.9
34.93	1876.0	1755.3
34.94	1865.0	1755.7
34.95	1865.0	1756.1
34.96	1872.0	1756.5
34.97	1846.0	1756.9
34.98	1838.0	1757.3
34.99	1881.0	1757.7
35.0	1906.0	1758.1
35.01	1858.0	1758.5
35.02	1841.0	1758.9
35.03	1856.0	1759.3
35.04	1870.0	1759.7
35.05	1865.0	1760.1
35.06	1888.0	1760.5
35.07	1941.0	1760.9
35.08	1923.0	1761.3
35.09	1897.0	1761.7
35.1	1871.0	1762.1
35.11	1890.0	1762.6
35.12	1897.0	1763.0
35.13	1864.0	1763.4
35.14	1890.0	1763.8
35.15	1901.0	1764.2
35.16	1924.0	1764.6
35.17	1899.0	1765.0
35.18	1871.0	1765.4
35.19	1866.0	1765.9
35.2	1877.0	1766.3
35.21	1890.0	1766.7
35.22	1883.0	1767.1
35.23	1919.0	1767.5
35.24	1918.0	1767.9
35.25	1899.0	1768.4
35.26	1910.0	1768.8
35.27	1919.0	1769.2
35.28	1884.0	1769.6
35.29	1870.0	1770.0
35.3	1854.0	1770.5
35.31	1857.0	1770.9
35.32	1876.0	1771.3
35.33	1912.0	1771.7
35.34	1944.0	1772.2
35.35	1880.0	1772.6
35.36	1857.0	1773.0
35.37	1872.0	1773.4
35.38	1877.0	1773.9
35.39	1898.0	1774.3
35.4	1941.0	1774.7
35.41	1948.0	1775.1
35.42	1920.0	1775.6
35.43	1923.0	1776.0
35.44	1912.0	1776.4
35.45	1889.0	1776.9
35.46	1924.0	1777.3
35.47	1958.0	1777.7
35.48	1953.0	1778.1
35.49	1948.0	1778.6
35.5	1953.0	1779.0
35.51	1960.0	1779.4
35.52	1943.0	1779.9
35.53	1908.0	1780.3
35.54	1888.0	1780.7
35.55	1891.0	1781.2
35.56	1909.0	1781.6
35.57	1942.0	1782.0
35.58	1947.0	1782.5
35.59	1920.0	1782.9
35.6	1923.0	1783.3
35.61	1924.0	1783.8
35.62	1912.0	1784.2
35.63	1919.0	1784.6
35.64	1929.0	1785.1
35.65	1943.0	1785.5
35.66	1951.0	1785.9
35.67	1971.0	1786.4
35.68	1980.0	1786.8
35.69	1949.0	1787.3
35.7	1949.0	1787.7
35.71	1963.0	1788.1
35.72	1943.0	1788.6
35.73	1911.0	1789.0
35.74	1894.0	1789.4
35.75	1905.0	1789.9
35.76	1933.0	1790.3
35.77	1940.0	1790.8
35.78	1938.0	1791.2
35.79	1932.0	1791.6
35.8	1906.0	1792.1
35.81	1916.0	1792.5
35.82	1945.0	1793.0
35.83	1921.0	1793.4
35.84	1905.0	1793.8
35.85	1920.0	1794.3
35.86	1940.0	1794.7
35.87	1942.0	1795.2
35.88	1925.0	1795.6
35.89	1921.0	1796.0
35.9	1922.0	1796.5
35.91	1906.0	1796.9
35.92	1926.0	1797.4
35.93	1970.0	1797.8
35.94	1950.0	1798.3
35.95	1919.0	1798.7
35.96	1934.0	1799.1
35.97	1907.0	1799.6
35.98	1888.0	1800.0
35.99	1906.0	1800.5
36.0	1887.0	1800.9
36.01	1851.0	1801.3
36.02	1841.0	1801.8
36.03	1850.0	1802.2
36.04	1839.0	1802.7
36.05	1881.0	1803.1
36.06	1923.0	1803.5
36.07	1926.0	1804.0
36.08	1943.0	1804.4
36.09	1922.0	1804.9
36.1	1880.0	1805.3
36.11	1887.0	1805.8
36.12	1896.0	1806.2
36.13	1886.0	1806.6
36.14	1897.0	1807.1
36.15	1896.0	1807.5
36.16	1889.0	1808.0
36.17	1897.0	1808.4
36.18	1909.0	1808.8
36.19	1911.0	1809.3
36.2	1901.0	1809.7
36.21	1901.0	1810.2
36.22	1924.0	1810.6
36.23	1902.0	1811.0
36.24	1889.0	1811.5
36.25	1955.0	1811.9
36.26	1973.0	1812.4
36.27	1944.0	1812.8
36.28	1941.0	1813.2
36.29	1933.0	1813.7
36.3	1905.0	1814.1
36.31	1919.0	1814.6
36.32	1957.0	1815.0
36.33	1932.0	1815.4
36.34	1894.0	1815.9
36.35	1888.0	1816.3
36.36	1922.0	1816.7
36.37	1949.0	1817.2
36.38	1958.0	1817.6
36.39	1932.0	1818.1
36.4	1902.0	1818.5
36.41	1909.0	1818.9
36.42	1884.0	1819.4
36.43	1886.0	1819.8
36.44	1946.0	1820.2
36.45	1985.0	1820.7
36.46	1959.0	1821.1
36.47	1929.0	1821.5
36.48	1941.0	1822.0
36.49	1947.0	1822.4
36.5	1941.0	1822.8
36.51	1905.0	1823.3
36.52	1890.0	1823.7
36.53	1936.0	1824.1
36.54	1979.0	1824.6
36.55	1972.0	1825.0
36.56	1963.0	1825.4
36.57	1986.0	1825.9
36.58	1992.0	1826.3
36.59	1970.0	1826.7
36.6	1945.0	1827.2
36.61	1952.0	1827.6
36.62	1975.0	1828.0
36.63	1972.0	1828.4
36.64	1970.0	1828.9
36.65	2014.0	1829.3
36.66	2011.0	1829.7
36.67	1986.0	1830.1
36.68	2019.0	1830.6
36.69	2035.0	1831.0
36.7	2056.0	1831.4
36.71	2089.0	1831.8
36.72	2092.0	1832.3
36.73	2077.0	1832.7
36.74	2095.0	1833.1
36.75	2098.0	1833.5
36.76	2089.0	1834.0
36.77	2107.0	1834.4
36.78	2112.0	1834.8
36.79	2124.0	1835.2
36.8	2104.0	1835.6
36.81	2090.0	1836.1
36.82	2128.0	1836.5
36.83	2141.0	1836.9
36.84	2142.0	1837.3
36.85	2131.0	1837.7
36.86	2139.0	1838.1
36.87	2185.0	1838.6
36.88	2202.0	1839.0
36.89	2230.0	1839.4
36.9	2230.0	1839.8
36.91	2211.0	1840.2
36.92	2221.0	1840.6
36.93	2224.0	1841.0
36.94	2207.0	1841.5
36.95	2199.0	1841.9
36.96	2240.0	1842.3
36.97	2296.0	1842.7
36.98	2316.0	1843.1
36.99	2294.0	1843.5
37.0	2273.0	1843.9
37.01	2266.0	1844.3
37.02	2209.0	1844.7
37.03	2188.0	1845.1
37.04	2275.0	1845.5
37.05	2320.0	1845.9
37.06	2266.0	1846.3
37.07	2234.0	1846.7
37.08	2276.0	1847.1
37.09	2300.0	1847.5
37.1	2235.0	1847.9
37.11	2189.0	1848.3
37.12	2192.0	1848.7
37.13	2198.0	1849.1
37.14	2230.0	1849.5
37.15	2247.0	1849.9
37.16	2248.0	1850.3
37.17	2256.0	1850.7
37.18	2237.0	1851.1
37.19	2219.0	1851.5
37.2	2204.0	1851.9
37.21	2173.0	1852.3
37.22	2172.0	1852.7
37.23	2188.0	1853.0
37.24	2186.0	1853.4
37.25	2219.0	1853.8
37.26	2219.0	1854.2
37.27	2222.0	1854.6
37.28	2265.0	1855.0
37.29	2262.0	1855.4
37.3	2247.0	1855.7
37.31	2230.0	1856.1
37.32	2195.0	1856.5
37.33	2219.0	1856.9
37.34	2243.0	1857.3
37.35	2233.0	1857.6
37.36	2213.0	1858.0
37.37	2203.0	1858.4
37.38	2209.0	1858.8
37.39	2230.0	1859.1
37.4	2246.0	1859.5
37.41	2227.0	1859.9
37.42	2192.0	1860.2
37.43	2203.0	1860.6
37.44	2237.0	1861.0
37.45	2254.0	1861.4
37.46	2231.0	1861.7
37.47	2210.0	1862.1
37.48	2194.0	1862.4
37.49	2211.0	1862.8
37.5	2245.0	1863.2
37.51	2287.0	1863.5
37.52	2317.0	1863.9
37.53	2285.0	1864.3
37.54	2257.0	1864.6
37.55	2272.0	1865.0
37.56	2290.0	1865.3
37.57	2241.0	1865.7
37.58	2209.0	1866.0
37.59	2235.0	1866.4
37.6	2263.0	1866.7
37.61	2236.0	1867.1
37.62	2203.0	1867.4
37.63	2202.0	1867.8
37.64	2234.0	1868.1
37.65	2250.0	1868.5
37.66	2248.0	1868.8
37.67	2278.0	1869.1
37.68	2203.0	1869.5
37.69	2192.0	1869.8
37.7	2205.0	1870.2
37.71	2135.0	1870.5
37.72	2111.0	1870.8
37.73	2123.0	1871.2
37.74	2152.0	1871.5
37.75	2154.0	1871.8
37.76	2115.0	1872.2
37.77	2093.0	1872.5
37.78	2089.0	1872.8
37.79	2089.0	1873.2
37.8	2082.0	1873.5
37.81	2111.0	1873.8
37.82	2126.0	1874.1
37.83	2081.0	1874.5
37.84	2054.0	1874.8
37.85	2080.0	1875.1
37.86	2078.0	1875.4
37.87	2042.0	1875.7
37.88	1997.0	1876.1
37.89	2004.0	1876.4
37.9	1993.0	1876.7
37.91	2046.0	1877.0
37.92	2079.0	1877.3
37.93	2057.0	1877.6
37.94	2034.0	1877.9
37.95	2017.0	1878.3
37.96	1972.0	1878.6
37.97	1963.0	1878.9
37.98	1988.0	1879.2
37.99	1962.0	1879.5
38.0	1947.0	1879.8
38.01	1979.0	1880.1
38.02	1997.0	1880.4
38.03	1980.0	1880.7
38.04	1980.0	1881.0
38.05	1998.0	1881.3
38.06	1986.0	1881.6
38.07	1949.0	1881.9
38.08	1936.0	1882.2
38.09	1960.0	1882.5
38.1	1917.0	1882.8
38.11	1904.0	1883.0
38.12	1936.0	1883.3
38.13	1938.0	1883.6
38.14	1964.0	1883.9
38.15	1967.0	1884.2
38.16	1929.0	1884.5
38.17	1909.0	1884.8
38.18	1917.0	1885.0
38.19	1947.0	1885.3
38.2	1961.0	1885.6
38.21	1927.0	1885.9
38.22	1927.0	1886.2
38.23	1948.0	1886.4
38.24	1937.0	1886.7
38.25	1947.0	1887.0
38.26	1937.0	1887.3
38.27	1954.0	1887.5
38.28	1959.0	1887.8
38.29	1950.0	1888.1
38.3	1904.0	1888.4
38.31	1914.0	1888.6
38.32	1934.0	1888.9
38.33	1939.0	1889.2
38.34	1941.0	1889.4
38.35	1948.0	1889.7
38.36	1938.0	1889.9
38.37	1936.0	1890.2
38.38	1938.0	1890.5
38.39	1929.0	1890.7
38.4	1945.0	1891.0
38.41	1929.0	1891.2
38.42	1924.0	1891.5
38.43	1954.0	1891.8
38.44	1933.0	1892.0
38.45	1905.0	1892.3
38.46	1928.0	1892.5
38.47	1934.0	1892.8
38.48	1912.0	1893.0
38.49	1907.0	1893.3
38.5	1952.0	1893.5
38.51	1989.0	1893.8
38.52	1962.0	1894.0
38.53	1941.0	1894.2
38.54	1954.0	1894.5
38.55	1965.0	1894.7
38.56	2017.0	1895.0
38.57	1995.0	1895.2
38.58	1994.0	1895.5
38.59	2017.0	1895.7
38.6	2007.0	1895.9
38.61	2013.0	1896.2
38.62	2005.0	1896.4
38.63	2005.0	1896.6
38.64	2000.0	1896.9
38.65	1978.0	1897.1
38.66	1995.0	1897.3
38.67	1984.0	1897.5
38.68	2022.0	1897.8
38.69	2065.0	1898.0
38.7	2048.0	1898.2
38.71	2042.0	1898.5
38.72	2065.0	1898.7
38.73	2062.0	1898.9
38.74	2066.0	1899.1
38.75	2065.0	1899.3
38.76	2065.0	1899.6
38.77	2060.0	1899.8
38.78	2029.0	1900.0
38.79	2088.0	1900.2
38.8	2132.0	1900.4
38.81	2087.0	1900.6
38.82	2057.0	1900.9
38.83	2062.0	1901.1
38.84	2073.0	1901.3
38.85	2112.0	1901.5
38.86	2120.0	1901.7
38.87	2107.0	1901.9
38.88	2125.0	1902.1
38.89	2155.0	1902.3
38.9	2179.0	1902.5
38.91	2177.0	1902.7
38.92	2142.0	1902.9
38.93	2142.0	1903.1
38.94	2152.0	1903.3
38.95	2153.0	1903.5
38.96	2238.0	1903.7
38.97	2247.0	1903.9
38.98	2217.0	1904.1
38.99	2213.0	1904.3
39.0	2254.0	1904.5
39.01	2267.0	1904.7
39.02	2253.0	1904.9
39.03	2278.0	1905.1
39.04	2303.0	1905.3
39.05	2306.0	1905.5
39.06	2307.0	1905.6
39.07	2299.0	1905.8
39.08	2328.0	1906.0
39.09	2345.0	1906.2
39.1	2326.0	1906.4
39.11	2295.0	1906.6
39.12	2347.0	1906.7
39.13	2362.0	1906.9
39.14	2300.0	1907.1
39.15	2338.0	1907.3
39.16	2399.0	1907.5
39.17	2363.0	1907.6
39.18	2381.0	1907.8
39.19	2397.0	1908.0
39.2	2447.0	1908.2
39.21	2489.0	1908.3
39.22	2487.0	1908.5
39.23	2477.0	1908.7
39.24	2476.0	1908.8
39.25	2480.0	1909.0
39.26	2512.0	1909.2
39.27	2532.0	1909.3
39.28	2496.0	1909.5
39.29	2472.0	1909.7
39.3	2496.0	1909.8
39.31	2530.0	1910.0
39.32	2542.0	1910.2
39.33	2500.0	1910.3
39.34	2471.0	1910.5
39.35	2490.0	1910.6
39.36	2495.0	1910.8
39.37	2503.0	1911.0
39.38	2480.0	1911.1
39.39	2518.0	1911.3
39.4	2546.0	1911.4
39.41	2548.0	1911.6
39.42	2563.0	1911.7
39.43	2562.0	1911.9
39.44	2527.0	1912.0
39.45	2545.0	1912.2
39.46	2575.0	1912.3
39.47	2543.0	1912.5
39.48	2487.0	1912.6
39.49	2526.0	1912.8
39.5	2597.0	1912.9
39.51	2536.0	1913.0
39.52	2485.0	1913.2
39.53	2516.0	1913.3
39.54	2547.0	1913.5
39.55	2499.0	1913.6
39.56	2438.0	1913.7
39.57	2479.0	1913.9
39.58	2506.0	1914.0
39.59	2496.0	1914.1
39.6	2507.0	1914.3
39.61	2526.0	1914.4
39.62	2442.0	1914.5
39.63	2400.0	1914.7
39.64	2388.0	1914.8
39.65	2384.0	1914.9
39.66	2416.0	1915.1
39.67	2463.0	1915.2
39.68	2458.0	1915.3
39.69	2423.0	1915.4
39.7	2420.0	1915.6
39.71	2347.0	1915.7
39.72	2291.0	1915.8
39.73	2315.0	1915.9
39.74	2372.0	1916.0
39.75	2362.0	1916.2
39.76	2374.0	1916.3
39.77	2368.0	1916.4
39.78	2260.0	1916.5
39.79	2291.0	1916.6
39.8	2378.0	1916.7
39.81	2316.0	1916.9
39.82	2332.0	1917.0
39.83	2319.0	1917.1
39.84	2287.0	1917.2
39.85	2311.0	1917.3
39.86	2295.0	1917.4
39.87	2280.0	1917.5
39.88	2265.0	1917.6
39.89	2301.0	1917.7
39.9	2296.0	1917.8
39.91	2262.0	1917.9
39.92	2249.0	1918.0
39.93	2240.0	1918.1
39.94	2224.0	1918.2
39.95	2206.0	1918.3
39.96	2231.0	1918.4
39.97	2229.0	1918.5
39.98	2261.0	1918.6
39.99	2229.0	1918.7
40.0	2269.0	1918.8
40.01	2248.0	1918.9
40.02	2262.0	1919.0
40.03	2163.0	1919.1
40.04	2225.0	1919.2
40.05	2182.0	1919.3
40.06	2203.0	1919.4
40.07	2177.0	1919.5
40.08	2163.0	1919.6
40.09	2172.0	1919.7
40.1	2182.0	1919.7
40.11	2199.0	1919.8
40.12	2234.0	1919.9
40.13	2225.0	1920.0
40.14	2191.0	1920.1
40.15	2168.0	1920.2
40.16	2189.0	1920.2
40.17	2160.0	1920.3
40.18	2190.0	1920.4
40.19	2166.0	1920.5
40.2	2182.0	1920.6
40.21	2222.0	1920.6
40.22	2250.0	1920.7
40.23	2224.0	1920.8
40.24	2176.0	1920.9
40.25	2222.0	1920.9
40.26	2170.0	1921.0
40.27	2167.0	1921.1
40.28	2158.0	1921.1
40.29	2129.0	1921.2
40.3	2176.0	1921.3
40.31	2146.0	1921.3
40.32	2129.0	1921.4
40.33	2136.0	1921.5
40.34	2165.0	1921.5
40.35	2189.0	1921.6
40.36	2144.0	1921.7
40.37	2147.0	1921.7
40.38	2084.0	1921.8
40.39	2099.0	1921.9
40.4	2145.0	1921.9
40.41	2152.0	1922.0
40.42	2178.0	1922.0
40.43	2128.0	1922.1
40.44	2139.0	1922.1
40.45	2148.0	1922.2
40.46	2161.0	1922.3
40.47	2154.0	1922.3
40.48	2172.0	1922.4
40.49	2155.0	1922.4
40.5	2185.0	1922.5
40.51	2169.0	1922.5
40.52	2125.0	1922.6
40.53	2145.0	1922.6
40.54	2172.0	1922.7
40.55	2157.0	1922.7
40.56	2114.0	1922.8
40.57	2135.0	1922.8
40.58	2135.0	1922.8
40.59	2158.0	1922.9
40.6	2190.0	1922.9
40.61	2178.0	1923.0
40.62	2152.0	1923.0
40.63	2101.0	1923.0
40.64	2132.0	1923.1
40.65	2134.0	1923.1
40.66	2175.0	1923.2
40.67	2134.0	1923.2
40.68	2128.0	1923.2
40.69	2136.0	1923.3
40.7	2107.0	1923.3
40.71	2154.0	1923.3
40.72	2129.0	1923.4
40.73	2168.0	1923.4
40.74	2171.0	1923.4
40.75	2170.0	1923.5
40.76	2156.0	1923.5
40.77	2133.0	1923.5
40.78	2122.0	1923.5
40.79	2120.0	1923.6
40.8	2190.0	1923.6
40.81	2163.0	1923.6
40.82	2082.0	1923.6
40.83	2084.0	1923.7
40.84	2102.0	1923.7
40.85	2101.0	1923.7
40.86	2145.0	1923.7
40.87	2159.0	1923.7
40.88	2116.0	1923.8
40.89	2095.0	1923.8
40.9	2075.0	1923.8
40.91	2049.0	1923.8
40.92	2083.0	1923.8
40.93	2096.0	1923.8
40.94	2122.0	1923.9
40.95	2124.0	1923.9
40.96	2143.0	1923.9
40.97	2094.0	1923.9
40.98	2096.0	1923.9
40.99	2094.0	1923.9
41.0	2130.0	1923.9
41.01	2108.0	1923.9
41.02	2081.0	1923.9
41.03	2039.0	1923.9
41.04	2056.0	1924.0
41.05	2060.0	1924.0
41.06	2074.0	1924.0
41.07	2080.0	1924.0
41.08	2078.0	1924.0
41.09	2089.0	1924.0
41.1	2140.0	1924.0
41.11	2117.0	1924.0
41.12	2057.0	1924.0
41.13	2070.0	1924.0
41.14	2050.0	1924.0
41.15	2044.0	1924.0
41.16	2064.0	1924.0
41.17	2096.0	1924.0
41.18	2055.0	1923.9
41.19	2032.0	1923.9
41.2	2048.0	1923.9
41.21	1993.0	1923.9
41.22	1984.0	1923.9
41.23	2040.0	1923.9
41.24	2116.0	1923.9
41.25	2081.0	1923.9
41.26	2073.0	1923.9
41.27	2022.0	1923.9
41.28	2102.0	1923.8
41.29	2077.0	1923.8
41.3	2055.0	1923.8
41.31	2006.0	1923.8
41.32	2039.0	1923.8
41.33	1991.0	1923.8
41.34	2025.0	1923.7
41.35	2013.0	1923.7
41.36	2061.0	1923.7
41.37	2032.0	1923.7
41.38	2003.0	1923.7
41.39	2048.0	1923.6
41.4	2011.0	1923.6
41.41	1982.0	1923.6
41.42	2013.0	1923.6
41.43	2002.0	1923.6
41.44	2054.0	1923.5
41.45	2038.0	1923.5
41.46	2032.0	1923.5
41.47	2028.0	1923.4
41.48	2105.0	1923.4
41.49	2044.0	1923.4
41.5	2006.0	1923.4
41.51	2017.0	1923.3
41.52	2013.0	1923.3
41.53	2051.0	1923.3
41.54	2052.0	1923.2
41.55	2043.0	1923.2
41.56	2022.0	1923.2
41.57	2018.0	1923.1
41.58	1980.0	1923.1
41.59	1978.0	1923.0
41.6	2051.0	1923.0
41.61	1972.0	1923.0
41.62	1971.0	1922.9
41.63	2005.0	1922.9
41.64	1961.0	1922.9
41.65	1954.0	1922.8
41.66	2012.0	1922.8
41.67	1977.0	1922.7
41.68	2042.0	1922.7
41.69	2009.0	1922.6
41.7	1962.0	1922.6
41.71	2040.0	1922.5
41.72	1998.0	1922.5
41.73	1982.0	1922.5
41.74	2036.0	1922.4
41.75	1989.0	1922.4
41.76	1980.0	1922.3
41.77	2021.0	1922.3
41.78	2007.0	1922.2
41.79	2003.0	1922.2
41.8	1978.0	1922.1
41.81	1914.0	1922.0
41.82	1972.0	1922.0
41.83	2008.0	1921.9
41.84	1976.0	1921.9
41.85	2024.0	1921.8
41.86	1995.0	1921.8
41.87	2007.0	1921.7
41.88	2024.0	1921.7
41.89	1971.0	1921.6
41.9	1954.0	1921.5
41.91	2043.0	1921.5
41.92	2014.0	1921.4
41.93	1976.0	1921.4
41.94	2030.0	1921.3
41.95	1973.0	1921.2
41.96	1968.0	1921.2
41.97	2025.0	1921.1
41.98	2071.0	1921.0
41.99	2087.0	1921.0
42.0	2041.0	1920.9
42.01	2005.0	1920.8
42.02	1992.0	1920.8
42.03	2002.0	1920.7
42.04	2026.0	1920.6
42.05	2004.0	1920.6
42.06	2040.0	1920.5
42.07	2038.0	1920.4
42.08	2019.0	1920.3
42.09	2029.0	1920.3
42.1	2019.0	1920.2
42.11	2072.0	1920.1
42.12	1956.0	1920.0
42.13	1940.0	1920.0
42.14	2007.0	1919.9
42.15	2024.0	1919.8
42.16	2026.0	1919.7
42.17	2023.0	1919.7
42.18	2032.0	1919.6
42.19	1988.0	1919.5
42.2	1984.0	1919.4
42.21	1985.0	1919.3
42.22	1984.0	1919.3
42.23	2022.0	1919.2
42.24	2038.0	1919.1
42.25	2010.0	1919.0
42.26	2043.0	1918.9
42.27	2053.0	1918.8
42.28	1986.0	1918.8
42.29	1994.0	1918.7
42.3	2057.0	1918.6
42.31	2065.0	1918.5
42.32	2041.0	1918.4
42.33	2070.0	1918.3
42.34	2078.0	1918.2
42.35	2067.0	1918.1
42.36	2062.0	1918.0
42.37	2032.0	1918.0
42.38	2011.0	1917.9
42.39	1975.0	1917.8
42.4	2056.0	1917.7
42.41	2096.0	1917.6
42.42	2102.0	1917.5
42.43	2088.0	1917.4
42.44	2124.0	1917.3
42.45	2147.0	1917.2
42.46	2089.0	1917.1
42.47	2072.0	1917.0
42.48	2112.0	1916.9
42.49	2108.0	1916.8
42.5	2085.0	1916.7
42.51	2070.0	1916.6
42.52	2020.0	1916.5
42.53	2065.0	1916.4
42.54	2066.0	1916.3
42.55	2073.0	1916.2
42.56	2085.0	1916.1
42.57	2066.0	1916.0
42.58	2091.0	1915.9
42.59	2072.0	1915.8
42.6	2034.0	1915.7
42.61	2009.0	1915.6
42.62	2065.0	1915.5
42.63	2062.0	1915.3
42.64	2095.0	1915.2
42.65	2150.0	1915.1
42.66	2134.0	1915.0
42.67	2101.0	1914.9
42.68	2044.0	1914.8
42.69	2049.0	1914.7
42.7	2045.0	1914.6
42.71	2069.0	1914.5
42.72	2086.0	1914.3
42.73	2085.0	1914.2
42.74	2090.0	1914.1
42.75	2106.0	1914.0
42.76	2086.0	1913.9
42.77	2090.0	1913.8
42.78	2112.0	1913.6
42.79	2134.0	1913.5
42.8	2160.0	1913.4
42.81	2150.0	1913.3
42.82	2109.0	1913.2
42.83	2113.0	1913.0
42.84	2058.0	1912.9
42.85	2051.0	1912.8
42.86	2055.0	1912.7
42.87	2100.0	1912.6
42.88	2137.0	1912.4
42.89	2144.0	1912.3
42.9	2119.0	1912.2
42.91	2117.0	1912.1
42.92	2166.0	1911.9
42.93	2174.0	1911.8
42.94	2151.0	1911.7
42.95	2114.0	1911.6
42.96	2130.0	1911.4
42.97	2112.0	1911.3
42.98	2162.0	1911.2
42.99	2187.0	1911.0
43.0	2166.0	1910.9
43.01	2158.0	1910.8
43.02	2124.0	1910.6
43.03	2149.0	1910.5
43.04	2188.0	1910.4
43.05	2153.0	1910.2
43.06	2183.0	1910.1
43.07	2180.0	1910.0
43.08	2181.0	1909.8
43.09	2167.0	1909.7
43.1	2166.0	1909.6
43.11	2169.0	1909.4
43.12	2123.0	1909.3
43.13	2155.0	1909.2
43.14	2164.0	1909.0
43.15	2216.0	1908.9
43.16	2184.0	1908.7
43.17	2214.0	1908.6
43.18	2178.0	1908.5
43.19	2196.0	1908.3
43.2	2232.0	1908.2
43.21	2217.0	1908.0
43.22	2222.0	1907.9
43.23	2179.0	1907.7
43.24	2150.0	1907.6
43.25	2186.0	1907.5
43.26	2232.0	1907.3
43.27	2230.0	1907.2
43.28	2177.0	1907.0
43.29	2115.0	1906.9
43.3	2168.0	1906.7
43.31	2241.0	1906.6
43.32	2281.0	1906.4
43.33	2257.0	1906.3
43.34	2230.0	1906.1
43.35	2239.0	1906.0
43.36	2228.0	1905.8
43.37	2248.0	1905.7
43.38	2240.0	1905.5
43.39	2251.0	1905.4
43.4	2227.0	1905.2
43.41	2270.0	1905.1
43.42	2204.0	1904.9
43.43	2204.0	1904.8
43.44	2244.0	1904.6
43.45	2288.0	1904.4
43.46	2314.0	1904.3
43.47	2273.0	1904.1
43.48	2278.0	1904.0
43.49	2227.0	1903.8
43.5	2203.0	1903.7
43.51	2220.0	1903.5
43.52	2252.0	1903.3
43.53	2332.0	1903.2
43.54	2351.0	1903.0
43.55	2293.0	1902.9
43.56	2289.0	1902.7
43.57	2344.0	1902.5
43.58	2318.0	1902.4
43.59	2288.0	1902.2
43.6	2298.0	1902.0
43.61	2278.0	1901.9
43.62	2257.0	1901.7
43.63	2285.0	1901.5
43.64	2334.0	1901.4
43.65	2295.0	1901.2
43.66	2279.0	1901.0
43.67	2320.0	1900.9
43.68	2322.0	1900.7
43.69	2306.0	1900.5
43.7	2332.0	1900.4
43.71	2295.0	1900.2
43.72	2278.0	1900.0
43.73	2318.0	1899.9
43.74	2338.0	1899.7
43.75	2356.0	1899.5
43.76	2340.0	1899.4
43.77	2334.0	1899.2
43.78	2345.0	1899.0
43.79	2366.0	1898.8
43.8	2397.0	1898.7
43.81	2328.0	1898.5
43.82	2313.0	1898.3
43.83	2351.0	1898.1
43.84	2394.0	1898.0
43.85	2356.0	1897.8
43.86	2326.0	1897.6
43.87	2392.0	1897.4
43.88	2371.0	1897.3
43.89	2348.0	1897.1
43.9	2320.0	1896.9
43.91	2327.0	1896.7
43.92	2367.0	1896.5
43.93	2362.0	1896.4
43.94	2386.0	1896.2
43.95	2358.0	1896.0
43.96	2356.0	1895.8
43.97	2377.0	1895.6
43.98	2395.0	1895.5
43.99	2368.0	1895.3
44.0	2332.0	1895.1
44.01	2372.0	1894.9
44.02	2401.0	1894.7
44.03	2383.0	1894.5
44.04	2422.0	1894.3
44.05	2389.0	1894.2
44.06	2336.0	1894.0
44.07	2388.0	1893.8
44.08	2391.0	1893.6
44.09	2423.0	1893.4
44.1	2463.0	1893.2
44.11	2409.0	1893.0
44.12	2354.0	1892.8
44.13	2400.0	1892.7
44.14	2431.0	1892.5
44.15	2458.0	1892.3
44.16	2469.0	1892.1
44.17	2440.0	1891.9
44.18	2426.0	1891.7
44.19	2448.0	1891.5
44.2	2461.0	1891.3
44.21	2449.0	1891.1
44.22	2418.0	1890.9
44.23	2434.0	1890.7
44.24	2484.0	1890.5
44.25	2493.0	1890.4
44.26	2467.0	1890.2
44.27	2422.0	1890.0
44.28	2473.0	1889.8
44.29	2502.0	1889.6
44.3	2477.0	1889.4
44.31	2499.0	1889.2
44.32	2514.0	1889.0
44.33	2504.0	1888.8
44.34	2502.0	1888.6
44.35	2496.0	1888.4
44.36	2492.0	1888.2
44.37	2488.0	1888.0
44.38	2508.0	1887.8
44.39	2519.0	1887.6
44.4	2505.0	1887.4
44.41	2505.0	1887.2
44.42	2517.0	1887.0
44.43	2527.0	1886.8
44.44	2520.0	1886.6
44.45	2574.0	1886.4
44.46	2532.0	1886.2
44.47	2496.0	1886.0
44.48	2507.0	1885.8
44.49	2567.0	1885.5
44.5	2550.0	1885.3
44.51	2580.0	1885.1
44.52	2664.0	1884.9
44.53	2693.0	1884.7
44.54	2660.0	1884.5
44.55	2595.0	1884.3
44.56	2579.0	1884.1
44.57	2593.0	1883.9
44.58	2594.0	1883.7
44.59	2611.0	1883.5
44.6	2597.0	1883.3
44.61	2617.0	1883.1
44.62	2627.0	1882.8
44.63	2659.0	1882.6
44.64	2687.0	1882.4
44.65	2746.0	1882.2
44.66	2766.0	1882.0
44.67	2794.0	1881.8
44.68	2764.0	1881.6
44.69	2728.0	1881.4
44.7	2695.0	1881.1
44.71	2703.0	1880.9
44.72	2728.0	1880.7
44.73	2725.0	1880.5
44.74	2771.0	1880.3
44.75	2822.0	1880.1
44.76	2844.0	1879.9
44.77	2798.0	1879.6
44.78	2783.0	1879.4
44.79	2824.0	1879.2
44.8	2863.0	1879.0
44.81	2907.0	1878.8
44.82	2909.0	1878.6
44.83	2877.0	1878.3
44.84	2940.0	1878.1
44.85	2960.0	1877.9
44.86	2994.0	1877.7
44.87	3001.0	1877.5
44.88	2947.0	1877.2
44.89	2968.0	1877.0
44.9	3039.0	1876.8
44.91	3041.0	1876.6
44.92	3025.0	1876.4
44.93	3034.0	1876.1
44.94	3054.0	1875.9
44.95	3014.0	1875.7
44.96	3039.0	1875.5
44.97	3096.0	1875.2
44.98	3104.0	1875.0
44.99	3162.0	1874.8
45.0	3133.0	1874.6
45.01	3119.0	1874.3
45.02	3071.0	1874.1
45.03	3076.0	1873.9
45.04	3142.0	1873.7
45.05	3178.0	1873.4
45.06	3165.0	1873.2
45.07	3170.0	1873.0
45.08	3206.0	1872.8
45.09	3168.0	1872.5
45.1	3188.0	1872.3
45.11	3217.0	1872.1
45.12	3222.0	1871.8
45.13	3204.0	1871.6
45.14	3159.0	1871.4
45.15	3147.0	1871.2
45.16	3220.0	1870.9
45.17	3238.0	1870.7
45.18	3182.0	1870.5
45.19	3138.0	1870.2
45.2	3166.0	1870.0
45.21	3186.0	1869.8
45.22	3193.0	1869.5
45.23	3150.0	1869.3
45.24	3099.0	1869.1
45.25	3103.0	1868.8
45.26	3090.0	1868.6
45.27	3098.0	1868.4
45.28	3142.0	1868.1
45.29	3098.0	1867.9
45.3	3088.0	1867.7
45.31	3004.0	1867.4
45.32	3011.0	1867.2
45.33	2993.0	1867.0
45.34	3019.0	1866.7
45.35	2980.0	1866.5
45.36	2906.0	1866.3
45.37	2876.0	1866.0
45.38	2908.0	1865.8
45.39	2916.0	1865.5
45.4	2912.0	1865.3
45.41	2856.0	1865.1
45.42	2788.0	1864.8
45.43	2815.0	1864.6
45.44	2810.0	1864.3
45.45	2796.0	1864.1
45.46	2764.0	1863.9
45.47	2732.0	1863.6
45.48	2699.0	1863.4
45.49	2665.0	1863.1
45.5	2616.0	1862.9
45.51	2593.0	1862.7
45.52	2585.0	1862.4
45.53	2613.0	1862.2
45.54	2569.0	1861.9
45.55	2567.0	1861.7
45.56	2497.0	1861.5
45.57	2493.0	1861.2
45.58	2532.0	1861.0
45.59	2507.0	1860.7
45.6	2514.0	1860.5
45.61	2518.0	1860.2
45.62	2443.0	1860.0
45.63	2437.0	1859.7
45.64	2447.0	1859.5
45.65	2370.0	1859.3
45.66	2361.0	1859.0
45.67	2377.0	1858.8
45.68	2354.0	1858.5
45.69	2371.0	1858.3
45.7	2396.0	1858.0
45.71	2343.0	1857.8
45.72	2326.0	1857.5
45.73	2293.0	1857.3
45.74	2272.0	1857.0
45.75	2274.0	1856.8
45.76	2271.0	1856.5
45.77	2248.0	1856.3
45.78	2245.0	1856.0
45.79	2244.0	1855.8
45.8	2293.0	1855.5
45.81	2297.0	1855.3
45.82	2237.0	1855.0
45.83	2178.0	1854.8
45.84	2138.0	1854.5
45.85	2136.0	1854.3
45.86	2141.0	1854.0
45.87	2159.0	1853.8
45.88	2138.0	1853.5
45.89	2161.0	1853.3
45.9	2112.0	1853.0
45.91	2125.0	1852.8
45.92	2110.0	1852.5
45.93	2066.0	1852.3
45.94	2086.0	1852.0
45.95	2139.0	1851.8
45.96	2121.0	1851.5
45.97	2117.0	1851.3
45.98	2073.0	1851.0
45.99	2038.0	1850.8
46.0	2053.0	1850.5
46.01	2017.0	1850.3
46.02	1987.0	1850.0
46.03	2004.0	1849.7
46.04	2013.0	1849.5
46.05	2003.0	1849.2
46.06	2018.0	1849.0
46.07	1999.0	1848.7
46.08	2032.0	1848.5
46.09	2051.0	1848.2
46.1	2018.0	1848.0
46.11	2014.0	1847.7
46.12	2014.0	1847.4
46.13	1977.0	1847.2
46.14	2021.0	1846.9
46.15	2081.0	1846.7
46.16	2024.0	1846.4
46.17	1965.0	1846.2
46.18	1943.0	1845.9
46.19	1957.0	1845.7
46.2	1949.0	1845.4
46.21	1944.0	1845.1
46.22	1969.0	1844.9
46.23	1944.0	1844.6
46.24	1961.0	1844.4
46.25	1980.0	1844.1
46.26	1967.0	1843.8
46.27	1910.0	1843.6
46.28	1907.0	1843.3
46.29	1941.0	1843.1
46.3	1961.0	1842.8
46.31	1912.0	1842.6
46.32	1893.0	1842.3
46.33	1940.0	1842.0
46.34	1912.0	1841.8
46.35	1900.0	1841.5
46.36	1898.0	1841.3
46.37	1923.0	1841.0
46.38	1912.0	1840.7
46.39	1927.0	1840.5
46.4	1938.0	1840.2
46.41	1913.0	1840.0
46.42	1924.0	1839.7
46.43	1938.0	1839.4
46.44	1888.0	1839.2
46.45	1873.0	1838.9
46.46	1857.0	1838.7
46.47	1885.0	1838.4
46.48	1909.0	1838.1
46.49	1898.0	1837.9
46.5	1925.0	1837.6
46.51	1943.0	1837.4
46.52	1927.0	1837.1
46.53	1917.0	1836.8
46.54	1881.0	1836.6
46.55	1844.0	1836.3
46.56	1861.0	1836.0
46.57	1906.0	1835.8
46.58	1900.0	1835.5
46.59	1910.0	1835.3
46.6	1923.0	1835.0
46.61	1875.0	1834.7
46.62	1820.0	1834.5
46.63	1838.0	1834.2
46.64	1882.0	1833.9
46.65	1898.0	1833.7
46.66	1871.0	1833.4
46.67	1839.0	1833.2
46.68	1812.0	1832.9
46.69	1840.0	1832.6
46.7	1882.0	1832.4
46.71	1890.0	1832.1
46.72	1867.0	1831.9
46.73	1862.0	1831.6
46.74	1896.0	1831.3
46.75	1904.0	1831.1
46.76	1859.0	1830.8
46.77	1876.0	1830.5
46.78	1885.0	1830.3
46.79	1916.0	1830.0
46.8	1858.0	1829.8
46.81	1829.0	1829.5
46.82	1867.0	1829.2
46.83	1897.0	1829.0
46.84	1846.0	1828.7
46.85	1822.0	1828.4
46.86	1841.0	1828.2
46.87	1855.0	1827.9
46.88	1881.0	1827.7
46.89	1906.0	1827.4
46.9	1896.0	1827.1
46.91	1858.0	1826.9
46.92	1828.0	1826.6
46.93	1824.0	1826.3
46.94	1866.0	1826.1
46.95	1879.0	1825.8
46.96	1877.0	1825.6
46.97	1858.0	1825.3
46.98	1826.0	1825.0
46.99	1836.0	1824.8
47.0	1867.0	1824.5
47.01	1854.0	1824.2
47.02	1841.0	1824.0
47.03	1881.0	1823.7
47.04	1857.0	1823.5
47.05	1858.0	1823.2
47.06	1837.0	1822.9
47.07	1833.0	1822.7
47.08	1870.0	1822.4
47.09	1887.0	1822.1
47.1	1893.0	1821.9
47.11	1946.0	1821.6
47.12	1961.0	1821.4
47.13	1933.0	1821.1
47.14	1931.0	1820.8
47.15	1907.0	1820.6
47.16	1887.0	1820.3
47.17	1886.0	1820.0
47.18	1839.0	1819.8
47.19	1824.0	1819.5
47.2	1826.0	1819.3
47.21	1842.0	1819.0
47.22	1858.0	1818.7
47.23	1896.0	1818.5
47.24	1897.0	1818.2
47.25	1900.0	1818.0
47.26	1893.0	1817.7
47.27	1844.0	1817.4
47.28	1846.0	1817.2
47.29	1849.0	1816.9
47.3	1839.0	1816.6
47.31	1844.0	1816.4
47.32	1842.0	1816.1
47.33	1845.0	1815.9
47.34	1859.0	1815.6
47.35	1876.0	1815.3
47.36	1889.0	1815.1
47.37	1867.0	1814.8
47.38	1806.0	1814.6
47.39	1835.0	1814.3
47.4	1861.0	1814.0
47.41	1835.0	1813.8
47.42	1854.0	1813.5
47.43	1910.0	1813.3
47.44	1891.0	1813.0
47.45	1884.0	1812.8
47.46	1883.0	1812.5
47.47	1838.0	1812.2
47.48	1849.0	1812.0
47.49	1826.0	1811.7
47.5	1812.0	1811.5
47.51	1820.0	1811.2
47.52	1830.0	1810.9
47.53	1844.0	1810.7
47.54	1858.0	1810.4
47.55	1817.0	1810.2
47.56	1804.0	1809.9
47.57	1839.0	1809.7
47.58	1873.0	1809.4
47.59	1859.0	1809.1
47.6	1844.0	1808.9
47.61	1796.0	1808.6
47.62	1813.0	1808.4
47.63	1834.0	1808.1
47.64	1832.0	1807.9
47.65	1832.0	1807.6
47.66	1829.0	1807.4
47.67	1850.0	1807.1
47.68	1854.0	1806.8
47.69	1837.0	1806.6
47.7	1816.0	1806.3
47.71	1809.0	1806.1
47.72	1857.0	1805.8
47.73	1871.0	1805.6
47.74	1866.0	1805.3
47.75	1861.0	1805.1
47.76	1834.0	1804.8
47.77	1830.0	1804.6
47.78	1850.0	1804.3
47.79	1813.0	1804.0
47.8	1806.0	1803.8
47.81	1838.0	1803.5
47.82	1866.0	1803.3
47.83	1851.0	1803.0
47.84	1828.0	1802.8
47.85	1811.0	1802.5
47.86	1799.0	1802.3
47.87	1788.0	1802.0
47.88	1797.0	1801.8
47.89	1792.0	1801.5
47.9	1785.0	1801.3
47.91	1777.0	1801.0
47.92	1792.0	1800.8
47.93	1830.0	1800.5
47.94	1844.0	1800.3
47.95	1836.0	1800.0
47.96	1850.0	1799.8
47.97	1846.0	1799.5
47.98	1816.0	1799.3
47.99	1795.0	1799.0
48.0	1803.0	1798.8
48.01	1824.0	1798.5
48.02	1825.0	1798.3
48.03	1851.0	1798.0
48.04	1871.0	1797.8
48.05	1833.0	1797.5
48.06	1839.0	1797.3
48.07	1827.0	1797.0
48.08	1800.0	1796.8
48.09	1803.0	1796.6
48.1	1820.0	1796.3
48.11	1791.0	1796.1
48.12	1773.0	1795.8
48.13	1795.0	1795.6
48.14	1818.0	1795.3
48.15	1811.0	1795.1
48.16	1835.0	1794.8
48.17	1843.0	1794.6
48.18	1812.0	1794.4
48.19	1806.0	1794.1
48.2	1811.0	1793.9
48.21	1827.0	1793.6
48.22	1846.0	1793.4
48.23	1868.0	1793.1
48.24	1830.0	1792.9
48.25	1817.0	1792.7
48.26	1841.0	1792.4
48.27	1854.0	1792.2
48.28	1858.0	1791.9
48.29	1846.0	1791.7
48.3	1834.0	1791.5
48.31	1818.0	1791.2
48.32	1776.0	1791.0
48.33	1770.0	1790.7
48.34	1830.0	1790.5
48.35	1850.0	1790.3
48.36	1843.0	1790.0
48.37	1840.0	1789.8
48.38	1818.0	1789.6
48.39	1775.0	1789.3
48.4	1784.0	1789.1
48.41	1827.0	1788.9
48.42	1827.0	1788.6
48.43	1810.0	1788.4
48.44	1821.0	1788.1
48.45	1819.0	1787.9
48.46	1801.0	1787.7
48.47	1809.0	1787.4
48.48	1852.0	1787.2
48.49	1859.0	1787.0
48.5	1817.0	1786.7
48.51	1790.0	1786.5
48.52	1799.0	1786.3
48.53	1832.0	1786.0
48.54	1846.0	1785.8
48.55	1853.0	1785.6
48.56	1858.0	1785.4
48.57	1820.0	1785.1
48.58	1806.0	1784.9
48.59	1826.0	1784.7
48.6	1780.0	1784.4
48.61	1742.0	1784.2
48.62	1761.0	1784.0
48.63	1783.0	1783.8
48.64	1797.0	1783.5
48.65	1779.0	1783.3
48.66	1809.0	1783.1
48.67	1834.0	1782.8
48.68	1821.0	1782.6
48.69	1815.0	1782.4
48.7	1797.0	1782.2
48.71	1789.0	1781.9
48.72	1797.0	1781.7
48.73	1841.0	1781.5
48.74	1851.0	1781.3
48.75	1850.0	1781.1
48.76	1843.0	1780.8
48.77	1841.0	1780.6
48.78	1835.0	1780.4
48.79	1826.0	1780.2
48.8	1802.0	1780.0
48.81	1788.0	1779.7
48.82	1797.0	1779.5
48.83	1788.0	1779.3
48.84	1783.0	1779.1
48.85	1814.0	1778.9
48.86	1847.0	1778.6
48.87	1849.0	1778.4
48.88	1827.0	1778.2
48.89	1793.0	1778.0
48.9	1811.0	1777.8
48.91	1826.0	1777.6
48.92	1813.0	1777.3
48.93	1785.0	1777.1
48.94	1778.0	1776.9
48.95	1824.0	1776.7
48.96	1839.0	1776.5
48.97	1798.0	1776.3
48.98	1755.0	1776.1
48.99	1775.0	1775.8
49.0	1808.0	1775.6
49.01	1801.0	1775.4
49.02	1774.0	1775.2
49.03	1787.0	1775.0
49.04	1818.0	1774.8
49.05	1777.0	1774.6
49.06	1775.0	1774.4
49.07	1830.0	1774.2
49.08	1837.0	1774.0
49.09	1797.0	1773.8
49.1	1794.0	1773.6
49.11	1799.0	1773.3
49.12	1794.0	1773.1
49.13	1785.0	1772.9
49.14	1805.0	1772.7
49.15	1822.0	1772.5
49.16	1800.0	1772.3
49.17	1808.0	1772.1
49.18	1837.0	1771.9
49.19	1827.0	1771.7
49.2	1799.0	1771.5
49.21	1773.0	1771.3
49.22	1753.0	1771.1
49.23	1796.0	1770.9
49.24	1819.0	1770.7
49.25	1791.0	1770.5
49.26	1785.0	1770.3
49.27	1786.0	1770.1
49.28	1805.0	1769.9
49.29	1803.0	1769.7
49.3	1769.0	1769.5
49.31	1750.0	1769.3
49.32	1803.0	1769.2
49.33	1819.0	1769.0
49.34	1788.0	1768.8
49.35	1770.0	1768.6
49.36	1749.0	1768.4
49.37	1738.0	1768.2
49.38	1766.0	1768.0
49.39	1798.0	1767.8
49.4	1804.0	1767.6
49.41	1777.0	1767.4
49.42	1738.0	1767.2
49.43	1757.0	1767.0
49.44	1804.0	1766.9
49.45	1802.0	1766.7
49.46	1783.0	1766.5
49.47	1769.0	1766.3
49.48	1733.0	1766.1
49.49	1732.0	1765.9
49.5	1779.0	1765.7
49.51	1815.0	1765.6
49.52	1829.0	1765.4
49.53	1805.0	1765.2
49.54	1775.0	1765.0
49.55	1786.0	1764.8
49.56	1829.0	1764.7
49.57	1829.0	1764.5
49.58	1814.0	1764.3
49.59	1798.0	1764.1
49.6	1786.0	1763.9
49.61	1756.0	1763.8
49.62	1743.0	1763.6
49.63	1776.0	1763.4
49.64	1800.0	1763.2
49.65	1800.0	1763.1
49.66	1803.0	1762.9
49.67	1813.0	1762.7
49.68	1800.0	1762.5
49.69	1783.0	1762.4
49.7	1786.0	1762.2
49.71	1801.0	1762.0
49.72	1757.0	1761.9
49.73	1723.0	1761.7
49.74	1764.0	1761.5
49.75	1808.0	1761.3
49.76	1826.0	1761.2
49.77	1826.0	1761.0
49.78	1807.0	1760.8
49.79	1831.0	1760.7
49.8	1823.0	1760.5
49.81	1787.0	1760.4
49.82	1801.0	1760.2
49.83	1780.0	1760.0
49.84	1755.0	1759.9
49.85	1757.0	1759.7
49.86	1773.0	1759.5
49.87	1780.0	1759.4
49.88	1754.0	1759.2
49.89	1753.0	1759.1
49.9	1782.0	1758.9
49.91	1776.0	1758.7
49.92	1774.0	1758.6
49.93	1777.0	1758.4
49.94	1783.0	1758.3
49.95	1813.0	1758.1
49.96	1816.0	1758.0
49.97	1847.0	1757.8
49.98	1845.0	1757.7
49.99	1805.0	1757.5
50.0	1812.0	1757.4
50.01	1806.0	1757.2
50.02	1799.0	1757.1
50.03	1842.0	1756.9
50.04	1863.0	1756.8
50.05	1807.0	1756.6
50.06	1767.0	1756.5
50.07	1779.0	1756.3
50.08	1793.0	1756.2
50.09	1792.0	1756.0
50.1	1796.0	1755.9
50.11	1786.0	1755.7
50.12	1774.0	1755.6
50.13	1794.0	1755.4
50.14	1802.0	1755.3
50.15	1788.0	1755.2
50.16	1813.0	1755.0
50.17	1832.0	1754.9
50.18	1804.0	1754.7
50.19	1810.0	1754.6
50.2	1789.0	1754.5
50.21	1731.0	1754.3
50.22	1740.0	1754.2
50.23	1776.0	1754.0
50.24	1803.0	1753.9
50.25	1806.0	1753.8
50.26	1784.0	1753.6
50.27	1779.0	1753.5
50.28	1805.0	1753.4
50.29	1790.0	1753.2
50.3	1759.0	1753.1
50.31	1770.0	1753.0
50.32	1773.0	1752.8
50.33	1777.0	1752.7
50.34	1781.0	1752.6
50.35	1802.0	1752.5
50.36	1848.0	1752.3
50.37	1857.0	1752.2
50.38	1805.0	1752.1
50.39	1783.0	1751.9
50.4	1814.0	1751.8
50.41	1819.0	1751.7
50.42	1780.0	1751.6
50.43	1750.0	1751.4
50.44	1739.0	1751.3
50.45	1753.0	1751.2
50.46	1812.0	1751.1
50.47	1809.0	1751.0
50.48	1777.0	1750.8
50.49	1795.0	1750.7
50.5	1824.0	1750.6
50.51	1835.0	1750.5
50.52	1805.0	1750.4
50.53	1775.0	1750.3
50.54	1798.0	1750.1
50.55	1806.0	1750.0
50.56	1754.0	1749.9
50.57	1754.0	1749.8
50.58	1835.0	1749.7
50.59	1849.0	1749.6
50.6	1804.0	1749.5
50.61	1782.0	1749.3
50.62	1801.0	1749.2
50.63	1792.0	1749.1
50.64	1762.0	1749.0
50.65	1785.0	1748.9
50.66	1819.0	1748.8
50.67	1825.0	1748.7
50.68	1802.0	1748.6
50.69	1771.0	1748.5
50.7	1787.0	1748.4
50.71	1811.0	1748.3
50.72	1770.0	1748.2
50.73	1771.0	1748.1
50.74	1819.0	1748.0
50.75	1840.0	1747.9
50.76	1843.0	1747.8
50.77	1829.0	1747.6
50.78	1816.0	1747.5
50.79	1806.0	1747.5
50.8	1819.0	1747.4
50.81	1851.0	1747.3
50.82	1845.0	1747.2
50.83	1822.0	1747.1
50.84	1806.0	1747.0
50.85	1816.0	1746.9
50.86	1822.0	1746.8
50.87	1792.0	1746.7
50.88	1766.0	1746.6
50.89	1768.0	1746.5
50.9	1792.0	1746.4
50.91	1810.0	1746.3
50.92	1805.0	1746.2
50.93	1795.0	1746.1
50.94	1780.0	1746.0
50.95	1787.0	1746.0
50.96	1825.0	1745.9
50.97	1832.0	1745.8
50.98	1803.0	1745.7
50.99	1786.0	1745.6
51.0	1782.0	1745.5
51.01	1773.0	1745.4
51.02	1776.0	1745.4
51.03	1782.0	1745.3
51.04	1777.0	1745.2
51.05	1761.0	1745.1
51.06	1747.0	1745.0
51.07	1770.0	1744.9
51.08	1799.0	1744.9
51.09	1811.0	1744.8
51.1	1814.0	1744.7
51.11	1822.0	1744.6
51.12	1817.0	1744.6
51.13	1810.0	1744.5
51.14	1828.0	1744.4
51.15	1815.0	1744.3
51.16	1787.0	1744.2
51.17	1798.0	1744.2
51.18	1795.0	1744.1
51.19	1771.0	1744.0
51.2	1798.0	1744.0
51.21	1846.0	1743.9
51.22	1839.0	1743.8
51.23	1809.0	1743.7
51.24	1817.0	1743.7
51.25	1789.0	1743.6
51.26	1766.0	1743.5
51.27	1778.0	1743.5
51.28	1792.0	1743.4
51.29	1797.0	1743.3
51.3	1780.0	1743.3
51.31	1800.0	1743.2
51.32	1838.0	1743.2
51.33	1834.0	1743.1
51.34	1801.0	1743.0
51.35	1758.0	1743.0
51.36	1763.0	1742.9
51.37	1806.0	1742.8
51.38	1819.0	1742.8
51.39	1819.0	1742.7
51.4	1822.0	1742.7
51.41	1820.0	1742.6
51.42	1820.0	1742.6
51.43	1805.0	1742.5
51.44	1799.0	1742.4
51.45	1844.0	1742.4
51.46	1862.0	1742.3
51.47	1833.0	1742.3
51.48	1836.0	1742.2
51.49	1832.0	1742.2
51.5	1814.0	1742.1
51.51	1826.0	1742.1
51.52	1831.0	1742.0
51.53	1829.0	1742.0
51.54	1817.0	1741.9
51.55	1781.0	1741.9
51.56	1745.0	1741.8
51.57	1755.0	1741.8
51.58	1793.0	1741.7
51.59	1805.0	1741.7
51.6	1811.0	1741.7
51.61	1828.0	1741.6
51.62	1818.0	1741.6
51.63	1768.0	1741.5
51.64	1758.0	1741.5
51.65	1819.0	1741.4
51.66	1826.0	1741.4
51.67	1771.0	1741.4
51.68	1785.0	1741.3
51.69	1825.0	1741.3
51.7	1805.0	1741.2
51.71	1780.0	1741.2
51.72	1762.0	1741.2
51.73	1744.0	1741.1
51.74	1761.0	1741.1
51.75	1797.0	1741.1
51.76	1806.0	1741.0
51.77	1804.0	1741.0
51.78	1831.0	1741.0
51.79	1828.0	1740.9
51.8	1830.0	1740.9
51.81	1839.0	1740.9
51.82	1833.0	1740.8
51.83	1806.0	1740.8
51.84	1791.0	1740.8
51.85	1800.0	1740.8
51.86	1779.0	1740.7
51.87	1789.0	1740.7
51.88	1794.0	1740.7
51.89	1764.0	1740.7
51.9	1765.0	1740.6
51.91	1776.0	1740.6
51.92	1795.0	1740.6
51.93	1828.0	1740.6
51.94	1833.0	1740.6
51.95	1819.0	1740.5
51.96	1810.0	1740.5
51.97	1811.0	1740.5
51.98	1805.0	1740.5
51.99	1790.0	1740.5
52.0	1790.0	1740.4
52.01	1802.0	1740.4
52.02	1798.0	1740.4
52.03	1806.0	1740.4
52.04	1828.0	1740.4
52.05	1831.0	1740.4
52.06	1817.0	1740.4
52.07	1833.0	1740.3
52.08	1826.0	1740.3
52.09	1796.0	1740.3
52.1	1802.0	1740.3
52.11	1841.0	1740.3
52.12	1856.0	1740.3
52.13	1808.0	1740.3
52.14	1786.0	1740.3
52.15	1785.0	1740.3
52.16	1801.0	1740.3
52.17	1843.0	1740.3
52.18	1851.0	1740.3
52.19	1846.0	1740.3
52.2	1834.0	1740.3
52.21	1811.0	1740.3
52.22	1805.0	1740.2
52.23	1777.0	1740.2
52.24	1784.0	1740.2
52.25	1819.0	1740.2
52.26	1825.0	1740.3
52.27	1784.0	1740.3
52.28	1761.0	1740.3
52.29	1788.0	1740.3
52.3	1813.0	1740.3
52.31	1801.0	1740.3
52.32	1804.0	1740.3
52.33	1829.0	1740.3
52.34	1811.0	1740.3
52.35	1793.0	1740.3
52.36	1785.0	1740.3
52.37	1789.0	1740.3
52.38	1799.0	1740.3
52.39	1806.0	1740.3
52.4	1810.0	1740.3
52.41	1814.0	1740.4
52.42	1800.0	1740.4
52.43	1791.0	1740.4
52.44	1784.0	1740.4
52.45	1778.0	1740.4
52.46	1779.0	1740.4
52.47	1802.0	1740.4
52.48	1793.0	1740.5
52.49	1780.0	1740.5
52.5	1784.0	1740.5
52.51	1756.0	1740.5
52.52	1756.0	1740.5
52.53	1780.0	1740.6
52.54	1822.0	1740.6
52.55	1855.0	1740.6
52.56	1848.0	1740.6
52.57	1869.0	1740.6
52.58	1875.0	1740.7
52.59	1843.0	1740.7
52.6	1815.0	1740.7
52.61	1799.0	1740.7
52.62	1793.0	1740.8
52.63	1779.0	1740.8
52.64	1767.0	1740.8
52.65	1785.0	1740.8
52.66	1788.0	1740.9
52.67	1770.0	1740.9
52.68	1765.0	1740.9
52.69	1792.0	1741.0
52.7	1798.0	1741.0
52.71	1787.0	1741.0
52.72	1820.0	1741.1
52.73	1841.0	1741.1
52.74	1802.0	1741.1
52.75	1775.0	1741.2
52.76	1813.0	1741.2
52.77	1831.0	1741.2
52.78	1824.0	1741.3
52.79	1835.0	1741.3
52.8	1834.0	1741.4
52.81	1848.0	1741.4
52.82	1833.0	1741.4
52.83	1809.0	1741.5
52.84	1777.0	1741.5
52.85	1752.0	1741.6
52.86	1793.0	1741.6
52.87	1840.0	1741.7
52.88	1845.0	1741.7
52.89	1840.0	1741.7
52.9	1850.0	1741.8
52.91	1839.0	1741.8
52.92	1790.0	1741.9
52.93	1752.0	1741.9
52.94	1786.0	1742.0
52.95	1821.0	1742.0
52.96	1819.0	1742.1
52.97	1815.0	1742.1
52.98	1809.0	1742.2
52.99	1808.0	1742.2
53.0	1795.0	1742.3
53.01	1782.0	1742.4
53.02	1801.0	1742.4
53.03	1829.0	1742.5
53.04	1843.0	1742.5
53.05	1848.0	1742.6
53.06	1814.0	1742.6
53.07	1785.0	1742.7
53.08	1805.0	1742.8
53.09	1819.0	1742.8
53.1	1810.0	1742.9
53.11	1807.0	1742.9
53.12	1821.0	1743.0
53.13	1828.0	1743.1
53.14	1835.0	1743.1
53.15	1811.0	1743.2
53.16	1828.0	1743.3
53.17	1817.0	1743.3
53.18	1782.0	1743.4
53.19	1815.0	1743.4
53.2	1794.0	1743.5
53.21	1757.0	1743.6
53.22	1786.0	1743.7
53.23	1823.0	1743.7
53.24	1812.0	1743.8
53.25	1785.0	1743.9
53.26	1811.0	1743.9
53.27	1836.0	1744.0
53.28	1824.0	1744.1
53.29	1828.0	1744.2
53.3	1850.0	1744.2
53.31	1863.0	1744.3
53.32	1862.0	1744.4
53.33	1842.0	1744.5
53.34	1839.0	1744.5
53.35	1807.0	1744.6
53.36	1770.0	1744.7
53.37	1813.0	1744.8
53.38	1825.0	1744.9
53.39	1824.0	1744.9
53.4	1822.0	1745.0
53.41	1798.0	1745.1
53.42	1771.0	1745.2
53.43	1762.0	1745.3
53.44	1786.0	1745.4
53.45	1831.0	1745.4
53.46	1861.0	1745.5
53.47	1845.0	1745.6
53.48	1835.0	1745.7
53.49	1853.0	1745.8
53.5	1870.0	1745.9
53.51	1867.0	1746.0
53.52	1829.0	1746.1
53.53	1794.0	1746.2
53.54	1801.0	1746.2
53.55	1814.0	1746.3
53.56	1838.0	1746.4
53.57	1818.0	1746.5
53.58	1807.0	1746.6
53.59	1819.0	1746.7
53.6	1789.0	1746.8
53.61	1794.0	1746.9
53.62	1753.0	1747.0
53.63	1747.0	1747.1
53.64	1800.0	1747.2
53.65	1828.0	1747.3
53.66	1834.0	1747.4
53.67	1815.0	1747.5
53.68	1837.0	1747.6
53.69	1881.0	1747.7
53.7	1879.0	1747.8
53.71	1857.0	1747.9
53.72	1830.0	1748.0
53.73	1810.0	1748.1
53.74	1821.0	1748.2
53.75	1869.0	1748.3
53.76	1897.0	1748.5
53.77	1861.0	1748.6
53.78	1791.0	1748.7
53.79	1779.0	1748.8
53.8	1785.0	1748.9
53.81	1794.0	1749.0
53.82	1822.0	1749.1
53.83	1814.0	1749.2
53.84	1803.0	1749.3
53.85	1843.0	1749.5
53.86	1830.0	1749.6
53.87	1812.0	1749.7
53.88	1819.0	1749.8
53.89	1842.0	1749.9
53.9	1853.0	1750.0
53.91	1837.0	1750.2
53.92	1821.0	1750.3
53.93	1824.0	1750.4
53.94	1844.0	1750.5
53.95	1860.0	1750.6
53.96	1858.0	1750.8
53.97	1822.0	1750.9
53.98	1790.0	1751.0
53.99	1801.0	1751.1
54.0	1836.0	1751.3
54.01	1848.0	1751.4
54.02	1821.0	1751.5
54.03	1778.0	1751.6
54.04	1768.0	1751.8
54.05	1806.0	1751.9
54.06	1808.0	1752.0
54.07	1810.0	1752.2
54.08	1823.0	1752.3
54.09	1829.0	1752.4
54.1	1823.0	1752.6
54.11	1839.0	1752.7
54.12	1843.0	1752.8
54.13	1811.0	1753.0
54.14	1813.0	1753.1
54.15	1856.0	1753.2
54.16	1843.0	1753.4
54.17	1805.0	1753.5
54.18	1814.0	1753.6
54.19	1812.0	1753.8
54.2	1820.0	1753.9
54.21	1851.0	1754.1
54.22	1836.0	1754.2
54.23	1830.0	1754.3
54.24	1816.0	1754.5
54.25	1823.0	1754.6
54.26	1824.0	1754.8
54.27	1836.0	1754.9
54.28	1829.0	1755.1
54.29	1828.0	1755.2
54.3	1839.0	1755.4
54.31	1810.0	1755.5
54.32	1805.0	1755.7
54.33	1812.0	1755.8
54.34	1784.0	1756.0
54.35	1784.0	1756.1
54.36	1800.0	1756.3
54.37	1813.0	1756.4
54.38	1843.0	1756.6
54.39	1856.0	1756.7
54.4	1831.0	1756.9
54.41	1812.0	1757.0
54.42	1807.0	1757.2
54.43	1844.0	1757.3
54.44	1889.0	1757.5
54.45	1858.0	1757.7
54.46	1828.0	1757.8
54.47	1824.0	1758.0
54.48	1827.0	1758.1
54.49	1836.0	1758.3
54.5	1806.0	1758.5
54.51	1764.0	1758.6
54.52	1793.0	1758.8
54.53	1810.0	1759.0
54.54	1792.0	1759.1
54.55	1780.0	1759.3
54.56	1808.0	1759.4
54.57	1850.0	1759.6
54.58	1832.0	1759.8
54.59	1829.0	1760.0
54.6	1834.0	1760.1
54.61	1846.0	1760.3
54.62	1845.0	1760.5
54.63	1850.0	1760.6
54.64	1848.0	1760.8
54.65	1835.0	1761.0
54.66	1802.0	1761.2
54.67	1787.0	1761.3
54.68	1825.0	1761.5
54.69	1838.0	1761.7
54.7	1840.0	1761.9
54.71	1818.0	1762.0
54.72	1815.0	1762.2
54.73	1831.0	1762.4
54.74	1855.0	1762.6
54.75	1853.0	1762.8
54.76	1836.0	1762.9
54.77	1839.0	1763.1
54.78	1843.0	1763.3
54.79	1818.0	1763.5
54.8	1824.0	1763.7
54.81	1854.0	1763.9
54.82	1863.0	1764.0
54.83	1861.0	1764.2
54.84	1829.0	1764.4
54.85	1807.0	1764.6
54.86	1831.0	1764.8
54.87	1819.0	1765.0
54.88	1804.0	1765.2
54.89	1835.0	1765.4
54.9	1855.0	1765.5
54.91	1832.0	1765.7
54.92	1809.0	1765.9
54.93	1806.0	1766.1
54.94	1807.0	1766.3
54.95	1808.0	1766.5
54.96	1790.0	1766.7
54.97	1783.0	1766.9
54.98	1793.0	1767.1
54.99	1798.0	1767.3
55.0	1811.0	1767.5
55.01	1863.0	1767.7
55.02	1866.0	1767.9
55.03	1820.0	1768.1
55.04	1823.0	1768.3
55.05	1877.0	1768.5
55.06	1858.0	1768.7
55.07	1824.0	1768.9
55.08	1839.0	1769.1
55.09	1861.0	1769.3
55.1	1839.0	1769.5
55.11	1795.0	1769.7
55.12	1796.0	1770.0
55.13	1813.0	1770.2
55.14	1805.0	1770.4
55.15	1792.0	1770.6
55.16	1824.0	1770.8
55.17	1836.0	1771.0
55.18	1822.0	1771.2
55.19	1795.0	1771.4
55.2	1799.0	1771.6
55.21	1826.0	1771.9
55.22	1859.0	1772.1
55.23	1860.0	1772.3
55.24	1817.0	1772.5
55.25	1825.0	1772.7
55.26	1858.0	1772.9
55.27	1845.0	1773.2
55.28	1811.0	1773.4
55.29	1808.0	1773.6
55.3	1816.0	1773.8
55.31	1799.0	1774.0
55.32	1789.0	1774.3
55.33	1787.0	1774.5
55.34	1795.0	1774.7
55.35	1815.0	1774.9
55.36	1806.0	1775.2
55.37	1791.0	1775.4
55.38	1834.0	1775.6
55.39	1878.0	1775.9
55.4	1840.0	1776.1
55.41	1818.0	1776.3
55.42	1829.0	1776.5
55.43	1850.0	1776.8
55.44	1831.0	1777.0
55.45	1798.0	1777.2
55.46	1786.0	1777.5
55.47	1825.0	1777.7
55.48	1848.0	1777.9
55.49	1801.0	1778.2
55.5	1806.0	1778.4
55.51	1769.0	1778.6
55.52	1757.0	1778.9
55.53	1787.0	1779.1
55.54	1820.0	1779.4
55.55	1835.0	1779.6
55.56	1805.0	1779.8
55.57	1784.0	1780.1
55.58	1799.0	1780.3
55.59	1809.0	1780.6
55.6	1789.0	1780.8
55.61	1798.0	1781.1
55.62	1830.0	1781.3
55.63	1799.0	1781.6
55.64	1789.0	1781.8
55.65	1800.0	1782.0
55.66	1791.0	1782.3
55.67	1793.0	1782.5
55.68	1838.0	1782.8
55.69	1825.0	1783.0
55.7	1801.0	1783.3
55.71	1824.0	1783.5
55.72	1811.0	1783.8
55.73	1789.0	1784.1
55.74	1774.0	1784.3
55.75	1799.0	1784.6
55.76	1856.0	1784.8
55.77	1838.0	1785.1
55.78	1817.0	1785.3
55.79	1816.0	1785.6
55.8	1796.0	1785.8
55.81	1825.0	1786.1
55.82	1819.0	1786.4
55.83	1811.0	1786.6
55.84	1825.0	1786.9
55.85	1830.0	1787.1
55.86	1819.0	1787.4
55.87	1785.0	1787.7
55.88	1774.0	1787.9
55.89	1823.0	1788.2
55.9	1853.0	1788.5
55.91	1851.0	1788.7
55.92	1811.0	1789.0
55.93	1785.0	1789.2
55.94	1774.0	1789.5
55.95	1787.0	1789.8
55.96	1800.0	1790.0
55.97	1836.0	1790.3
55.98	1861.0	1790.6
55.99	1867.0	1790.8
56.0	1856.0	1791.1
56.01	1841.0	1791.4
56.02	1831.0	1791.7
56.03	1852.0	1791.9
56.04	1851.0	1792.2
56.05	1852.0	1792.5
56.06	1858.0	1792.7
56.07	1871.0	1793.0
56.08	1882.0	1793.3
56.09	1846.0	1793.6
56.1	1833.0	1793.8
56.11	1802.0	1794.1
56.12	1791.0	1794.4
56.13	1837.0	1794.7
56.14	1835.0	1794.9
56.15	1789.0	1795.2
56.16	1798.0	1795.5
56.17	1808.0	1795.8
56.18	1784.0	1796.0
56.19	1789.0	1796.3
56.2	1823.0	1796.6
56.21	1840.0	1796.9
56.22	1806.0	1797.2
56.23	1790.0	1797.4
56.24	1814.0	1797.7
56.25	1810.0	1798.0
56.26	1793.0	1798.3
56.27	1838.0	1798.6
56.28	1850.0	1798.9
56.29	1834.0	1799.1
56.3	1873.0	1799.4
56.31	1876.0	1799.7
56.32	1830.0	1800.0
56.33	1814.0	1800.3
56.34	1844.0	1800.6
56.35	1847.0	1800.8
56.36	1868.0	1801.1
56.37	1872.0	1801.4
56.38	1843.0	1801.7
56.39	1800.0	1802.0
56.4	1847.0	1802.3
56.41	1865.0	1802.6
56.42	1817.0	1802.9
56.43	1815.0	1803.1
56.44	1843.0	1803.4
56.45	1836.0	1803.7
56.46	1829.0	1804.0
56.47	1814.0	1804.3
56.48	1824.0	1804.6
56.49	1833.0	1804.9
56.5	1842.0	1805.2
56.51	1855.0	1805.5
56.52	1854.0	1805.7
56.53	1851.0	1806.0
56.54	1824.0	1806.3
56.55	1830.0	1806.6
56.56	1855.0	1806.9
56.57	1891.0	1807.2
56.58	1880.0	1807.5
56.59	1878.0	1807.8
56.6	1838.0	1808.1
56.61	1829.0	1808.4
56.62	1820.0	1808.7
56.63	1810.0	1809.0
56.64	1790.0	1809.3
56.65	1815.0	1809.6
56.66	1810.0	1809.9
56.67	1778.0	1810.1
56.68	1788.0	1810.4
56.69	1818.0	1810.7
56.7	1834.0	1811.0
56.71	1849.0	1811.3
56.72	1865.0	1811.6
56.73	1861.0	1811.9
56.74	1861.0	1812.2
56.75	1893.0	1812.5
56.76	1887.0	1812.8
56.77	1898.0	1813.1
56.78	1882.0	1813.4
56.79	1844.0	1813.7
56.8	1826.0	1814.0
56.81	1819.0	1814.3
56.82	1820.0	1814.6
56.83	1859.0	1814.9
56.84	1855.0	1815.2
56.85	1857.0	1815.5
56.86	1866.0	1815.8
56.87	1845.0	1816.1
56.88	1834.0	1816.4
56.89	1841.0	1816.7
56.9	1840.0	1817.0
56.91	1820.0	1817.3
56.92	1854.0	1817.6
56.93	1849.0	1817.9
56.94	1855.0	1818.2
56.95	1846.0	1818.5
56.96	1842.0	1818.8
56.97	1818.0	1819.1
56.98	1815.0	1819.4
56.99	1859.0	1819.7
57.0	1845.0	1820.0
57.01	1811.0	1820.3
57.02	1819.0	1820.6
57.03	1844.0	1820.9
57.04	1865.0	1821.2
57.05	1871.0	1821.5
57.06	1874.0	1821.8
57.07	1890.0	1822.1
57.08	1871.0	1822.4
57.09	1855.0	1822.7
57.1	1891.0	1823.0
57.11	1904.0	1823.3
57.12	1857.0	1823.6
57.13	1834.0	1823.9
57.14	1845.0	1824.2
57.15	1864.0	1824.5
57.16	1878.0	1824.8
57.17	1876.0	1825.1
57.18	1874.0	1825.4
57.19	1882.0	1825.7
57.2	1891.0	1826.0
57.21	1857.0	1826.3
57.22	1875.0	1826.6
57.23	1863.0	1826.9
57.24	1810.0	1827.2
57.25	1836.0	1827.5
57.26	1841.0	1827.8
57.27	1809.0	1828.1
57.28	1811.0	1828.4
57.29	1830.0	1828.7
57.3	1835.0	1829.0
57.31	1850.0	1829.3
57.32	1867.0	1829.6
57.33	1868.0	1829.9
57.34	1861.0	1830.2
57.35	1837.0	1830.5
57.36	1913.0	1830.8
57.37	1966.0	1831.1
57.38	1899.0	1831.4
57.39	1823.0	1831.7
57.4	1835.0	1832.0
57.41	1879.0	1832.3
57.42	1878.0	1832.6
57.43	1843.0	1832.9
57.44	1821.0	1833.2
57.45	1821.0	1833.5
57.46	1845.0	1833.8
57.47	1876.0	1834.1
57.48	1899.0	1834.4
57.49	1907.0	1834.7
57.5	1896.0	1835.0
57.51	1919.0	1835.3
57.52	1885.0	1835.6
57.53	1830.0	1835.9
57.54	1817.0	1836.2
57.55	1835.0	1836.5
57.56	1885.0	1836.8
57.57	1882.0	1837.1
57.58	1862.0	1837.4
57.59	1866.0	1837.7
57.6	1890.0	1838.0
57.61	1872.0	1838.3
57.62	1882.0	1838.6
57.63	1888.0	1838.9
57.64	1869.0	1839.2
57.65	1877.0	1839.5
57.66	1849.0	1839.8
57.67	1868.0	1840.1
57.68	1865.0	1840.4
57.69	1867.0	1840.7
57.7	1865.0	1841.0
57.71	1867.0	1841.3
57.72	1894.0	1841.6
57.73	1886.0	1841.9
57.74	1841.0	1842.1
57.75	1834.0	1842.4
57.76	1879.0	1842.7
57.77	1891.0	1843.0
57.78	1894.0	1843.3
57.79	1854.0	1843.6
57.8	1840.0	1843.9
57.81	1869.0	1844.2
57.82	1854.0	1844.5
57.83	1840.0	1844.8
57.84	1799.0	1845.1
57.85	1828.0	1845.4
57.86	1896.0	1845.7
57.87	1860.0	1846.0
57.88	1829.0	1846.2
57.89	1826.0	1846.5
57.9	1865.0	1846.8
57.91	1879.0	1847.1
57.92	1859.0	1847.4
57.93	1846.0	1847.7
57.94	1882.0	1848.0
57.95	1909.0	1848.3
57.96	1925.0	1848.6
57.97	1915.0	1848.8
57.98	1876.0	1849.1
57.99	1881.0	1849.4
58.0	1905.0	1849.7
58.01	1928.0	1850.0
58.02	1932.0	1850.3
58.03	1910.0	1850.6
58.04	1848.0	1850.8
58.05	1820.0	1851.1
58.06	1877.0	1851.4
58.07	1874.0	1851.7
58.08	1889.0	1852.0
58.09	1876.0	1852.3
58.1	1867.0	1852.5
58.11	1879.0	1852.8
58.12	1860.0	1853.1
58.13	1865.0	1853.4
58.14	1882.0	1853.7
58.15	1867.0	1854.0
58.16	1891.0	1854.2
58.17	1919.0	1854.5
58.18	1926.0	1854.8
58.19	1917.0	1855.1
58.2	1908.0	1855.3
58.21	1893.0	1855.6
58.22	1892.0	1855.9
58.23	1894.0	1856.2
58.24	1911.0	1856.5
58.25	1916.0	1856.7
58.26	1913.0	1857.0
58.27	1938.0	1857.3
58.28	1904.0	1857.6
58.29	1875.0	1857.8
58.3	1918.0	1858.1
58.31	1936.0	1858.4
58.32	1936.0	1858.6
58.33	1890.0	1858.9
58.34	1849.0	1859.2
58.35	1894.0	1859.5
58.36	1943.0	1859.7
58.37	1950.0	1860.0
58.38	1920.0	1860.3
58.39	1919.0	1860.5
58.4	1928.0	1860.8
58.41	1888.0	1861.1
58.42	1914.0	1861.3
58.43	1995.0	1861.6
58.44	1982.0	1861.9
58.45	1949.0	1862.1
58.46	1950.0	1862.4
58.47	1925.0	1862.7
58.48	1871.0	1862.9
58.49	1921.0	1863.2
58.5	1947.0	1863.5
58.51	1926.0	1863.7
58.52	1910.0	1864.0
58.53	1907.0	1864.2
58.54	1903.0	1864.5
58.55	1914.0	1864.8
58.56	1925.0	1865.0
58.57	1933.0	1865.3
58.58	1966.0	1865.5
58.59	1970.0	1865.8
58.6	1940.0	1866.0
58.61	1925.0	1866.3
58.62	1904.0	1866.6
58.63	1932.0	1866.8
58.64	1898.0	1867.1
58.65	1914.0	1867.3
58.66	1947.0	1867.6
58.67	1931.0	1867.8
58.68	1901.0	1868.1
58.69	1912.0	1868.3
58.7	1943.0	1868.6
58.71	1975.0	1868.8
58.72	1967.0	1869.1
58.73	1968.0	1869.3
58.74	1911.0	1869.6
58.75	1933.0	1869.8
58.76	1956.0	1870.1
58.77	1964.0	1870.3
58.78	1970.0	1870.5
58.79	1966.0	1870.8
58.8	1980.0	1871.0
58.81	1951.0	1871.3
58.82	1947.0	1871.5
58.83	1951.0	1871.8
58.84	1949.0	1872.0
58.85	1942.0	1872.2
58.86	1958.0	1872.5
58.87	1947.0	1872.7
58.88	1950.0	1872.9
58.89	1978.0	1873.2
58.9	1982.0	1873.4
58.91	1988.0	1873.6
58.92	1983.0	1873.9
58.93	1968.0	1874.1
58.94	1951.0	1874.3
58.95	1930.0	1874.6
58.96	1942.0	1874.8
58.97	1958.0	1875.0
58.98	1940.0	1875.3
58.99	1967.0	1875.5
59.0	1991.0	1875.7
59.01	1996.0	1875.9
59.02	1998.0	1876.2
59.03	1971.0	1876.4
59.04	1975.0	1876.6
59.05	2028.0	1876.8
59.06	2052.0	1877.1
59.07	1996.0	1877.3
59.08	1968.0	1877.5
59.09	1982.0	1877.7
59.1	1951.0	1877.9
59.11	1949.0	1878.2
59.12	1968.0	1878.4
59.13	1950.0	1878.6
59.14	1938.0	1878.8
59.15	1902.0	1879.0
59.16	1935.0	1879.2
59.17	2003.0	1879.4
59.18	1978.0	1879.7
59.19	1921.0	1879.9
59.2	1912.0	1880.1
59.21	1947.0	1880.3
59.22	1981.0	1880.5
59.23	1972.0	1880.7
59.24	1978.0	1880.9
59.25	1956.0	1881.1
59.26	1924.0	1881.3
59.27	1956.0	1881.5
59.28	1971.0	1881.7
59.29	1965.0	1881.9
59.3	2000.0	1882.1
59.31	1994.0	1882.3
59.32	2009.0	1882.5
59.33	2002.0	1882.7
59.34	1955.0	1882.9
59.35	1949.0	1883.1
59.36	1964.0	1883.3
59.37	1972.0	1883.5
59.38	1948.0	1883.7
59.39	1912.0	1883.9
59.4	1946.0	1884.1
59.41	1957.0	1884.3
59.42	1949.0	1884.5
59.43	1941.0	1884.6
59.44	1955.0	1884.8
59.45	1976.0	1885.0
59.46	1983.0	1885.2
59.47	1966.0	1885.4
59.48	1983.0	1885.6
59.49	1988.0	1885.7
59.5	1908.0	1885.9
59.51	1956.0	1886.1
59.52	2009.0	1886.3
59.53	1968.0	1886.5
59.54	1947.0	1886.6
59.55	1940.0	1886.8
59.56	1965.0	1887.0
59.57	1955.0	1887.2
59.58	1897.0	1887.3
59.59	1958.0	1887.5
59.6	1985.0	1887.7
59.61	1975.0	1887.8
59.62	1961.0	1888.0
59.63	1962.0	1888.2
59.64	1968.0	1888.3
59.65	1954.0	1888.5
59.66	1970.0	1888.7
59.67	1968.0	1888.8
59.68	1982.0	1889.0
59.69	1979.0	1889.1
59.7	1959.0	1889.3
59.71	1979.0	1889.5
59.72	1988.0	1889.6
59.73	1945.0	1889.8
59.74	1968.0	1889.9
59.75	1918.0	1890.1
59.76	1937.0	1890.2
59.77	1973.0	1890.4
59.78	2009.0	1890.5
59.79	1965.0	1890.7
59.8	1933.0	1890.8
59.81	1971.0	1891.0
59.82	1978.0	1891.1
59.83	1972.0	1891.3
59.84	1978.0	1891.4
59.85	1959.0	1891.5
59.86	1947.0	1891.7
59.87	1989.0	1891.8
59.88	1988.0	1892.0
59.89	1972.0	1892.1
59.9	1952.0	1892.2
59.91	1928.0	1892.4
59.92	1989.0	1892.5
59.93	1970.0	1892.6
59.94	1921.0	1892.8
59.95	1898.0	1892.9
59.96	1901.0	1893.0
59.97	1944.0	1893.1
59.98	1907.0	1893.3
59.99	1911.0	1893.4
60.0	1984.0	1893.5
60.01	1958.0	1893.6
60.02	1952.0	1893.8
60.03	1987.0	1893.9
60.04	2033.0	1894.0
60.05	2008.0	1894.1
60.06	2015.0	1894.2
60.07	2009.0	1894.3
60.08	1925.0	1894.4
60.09	1943.0	1894.6
60.1	1935.0	1894.7
60.11	1902.0	1894.8
60.12	1879.0	1894.9
60.13	1898.0	1895.0
60.14	1958.0	1895.1
60.15	1953.0	1895.2
60.16	1964.0	1895.3
60.17	1928.0	1895.4
60.18	1979.0	1895.5
60.19	1994.0	1895.6
60.2	1964.0	1895.7
60.21	1990.0	1895.8
60.22	1961.0	1895.9
60.23	1979.0	1896.0
60.24	2027.0	1896.1
60.25	2020.0	1896.1
60.26	2016.0	1896.2
60.27	2059.0	1896.3
60.28	2026.0	1896.4
60.29	1950.0	1896.5
60.3	1958.0	1896.6
60.31	1949.0	1896.7
60.32	1996.0	1896.7
60.33	2035.0	1896.8
60.34	2036.0	1896.9
60.35	2027.0	1897.0
60.36	2016.0	1897.0
60.37	2013.0	1897.1
60.38	2029.0	1897.2
60.39	2043.0	1897.3
60.4	2038.0	1897.3
60.41	2050.0	1897.4
60.42	2025.0	1897.5
60.43	2067.0	1897.5
60.44	2104.0	1897.6
60.45	2082.0	1897.7
60.46	2027.0	1897.7
60.47	2004.0	1897.8
60.48	2026.0	1897.9
60.49	2082.0	1897.9
60.5	2095.0	1898.0
60.51	2091.0	1898.0
60.52	2085.0	1898.1
60.53	2043.0	1898.1
60.54	2029.0	1898.2
60.55	2067.0	1898.2
60.56	2048.0	1898.3
60.57	2087.0	1898.3
60.58	2107.0	1898.4
60.59	2111.0	1898.4
60.6	2122.0	1898.5
60.61	2176.0	1898.5
60.62	2128.0	1898.6
60.63	2116.0	1898.6
60.64	2065.0	1898.7
60.65	2105.0	1898.7
60.66	2170.0	1898.7
60.67	2119.0	1898.8
60.68	2073.0	1898.8
60.69	2116.0	1898.8
60.7	2151.0	1898.9
60.71	2116.0	1898.9
60.72	2142.0	1898.9
60.73	2121.0	1899.0
60.74	2146.0	1899.0
60.75	2207.0	1899.0
60.76	2202.0	1899.1
60.77	2220.0	1899.1
60.78	2226.0	1899.1
60.79	2265.0	1899.1
60.8	2245.0	1899.1
60.81	2163.0	1899.2
60.82	2232.0	1899.2
60.83	2282.0	1899.2
60.84	2225.0	1899.2
60.85	2192.0	1899.2
60.86	2153.0	1899.3
60.87	2150.0	1899.3
60.88	2187.0	1899.3
60.89	2262.0	1899.3
60.9	2267.0	1899.3
60.91	2229.0	1899.3
60.92	2186.0	1899.3
60.93	2252.0	1899.3
60.94	2275.0	1899.3
60.95	2292.0	1899.3
60.96	2300.0	1899.3
60.97	2328.0	1899.3
60.98	2329.0	1899.3
60.99	2320.0	1899.3
61.0	2281.0	1899.3
61.01	2328.0	1899.3
61.02	2331.0	1899.3
61.03	2326.0	1899.3
61.04	2339.0	1899.3
61.05	2404.0	1899.3
61.06	2446.0	1899.3
61.07	2393.0	1899.3
61.08	2352.0	1899.3
61.09	2379.0	1899.3
61.1	2367.0	1899.3
61.11	2361.0	1899.3
61.12	2436.0	1899.3
61.13	2466.0	1899.2
61.14	2456.0	1899.2
61.15	2425.0	1899.2
61.16	2445.0	1899.2
61.17	2480.0	1899.2
61.18	2511.0	1899.2
61.19	2512.0	1899.1
61.2	2531.0	1899.1
61.21	2498.0	1899.1
61.22	2502.0	1899.1
61.23	2516.0	1899.0
61.24	2548.0	1899.0
61.25	2526.0	1899.0
61.26	2532.0	1899.0
61.27	2530.0	1898.9
61.28	2520.0	1898.9
61.29	2528.0	1898.9
61.3	2535.0	1898.8
61.31	2535.0	1898.8
61.32	2593.0	1898.8
61.33	2623.0	1898.7
61.34	2573.0	1898.7
61.35	2584.0	1898.7
61.36	2647.0	1898.6
61.37	2630.0	1898.6
61.38	2589.0	1898.5
61.39	2665.0	1898.5
61.4	2643.0	1898.4
61.41	2538.0	1898.4
61.42	2573.0	1898.4
61.43	2619.0	1898.3
61.44	2623.0	1898.3
61.45	2626.0	1898.2
61.46	2686.0	1898.2
61.47	2705.0	1898.1
61.48	2670.0	1898.1
61.49	2628.0	1898.0
61.5	2635.0	1898.0
61.51	2670.0	1897.9
61.52	2679.0	1897.9
61.53	2623.0	1897.8
61.54	2613.0	1897.7
61.55	2623.0	1897.7
61.56	2629.0	1897.6
61.57	2634.0	1897.6
61.58	2639.0	1897.5
61.59	2658.0	1897.4
61.6	2606.0	1897.4
61.61	2644.0	1897.3
61.62	2594.0	1897.3
61.63	2646.0	1897.2
61.64	2602.0	1897.1
61.65	2640.0	1897.1
61.66	2677.0	1897.0
61.67	2646.0	1896.9
61.68	2630.0	1896.9
61.69	2610.0	1896.8
61.7	2624.0	1896.7
61.71	2617.0	1896.6
61.72	2634.0	1896.6
61.73	2639.0	1896.5
61.74	2626.0	1896.4
61.75	2565.0	1896.3
61.76	2615.0	1896.3
61.77	2629.0	1896.2
61.78	2614.0	1896.1
61.79	2608.0	1896.0
61.8	2634.0	1895.9
61.81	2625.0	1895.9
61.82	2585.0	1895.8
61.83	2593.0	1895.7
61.84	2565.0	1895.6
61.85	2495.0	1895.5
61.86	2513.0	1895.4
61.87	2551.0	1895.4
61.88	2528.0	1895.3
61.89	2522.0	1895.2
61.9	2458.0	1895.1
61.91	2492.0	1895.0
61.92	2515.0	1894.9
61.93	2493.0	1894.8
61.94	2502.0	1894.7
61.95	2487.0	1894.6
61.96	2502.0	1894.5
61.97	2523.0	1894.4
61.98	2495.0	1894.3
61.99	2476.0	1894.2
62.0	2470.0	1894.1
62.01	2496.0	1894.0
62.02	2494.0	1893.9
62.03	2476.0	1893.8
62.04	2450.0	1893.7
62.05	2476.0	1893.6
62.06	2433.0	1893.5
62.07	2439.0	1893.4
62.08	2432.0	1893.3
62.09	2393.0	1893.2
62.1	2401.0	1893.1
62.11	2431.0	1893.0
62.12	2421.0	1892.9
62.13	2432.0	1892.8
62.14	2425.0	1892.7
62.15	2371.0	1892.6
62.16	2361.0	1892.5
62.17	2341.0	1892.3
62.18	2392.0	1892.2
62.19	2455.0	1892.1
62.2	2405.0	1892.0
62.21	2416.0	1891.9
62.22	2384.0	1891.8
62.23	2419.0	1891.7
62.24	2396.0	1891.5
62.25	2391.0	1891.4
62.26	2323.0	1891.3
62.27	2342.0	1891.2
62.28	2321.0	1891.1
62.29	2353.0	1890.9
62.3	2382.0	1890.8
62.31	2370.0	1890.7
62.32	2312.0	1890.6
62.33	2335.0	1890.4
62.34	2347.0	1890.3
62.35	2323.0	1890.2
62.36	2330.0	1890.1
62.37	2297.0	1889.9
62.38	2282.0	1889.8
62.39	2296.0	1889.7
62.4	2308.0	1889.5
62.41	2348.0	1889.4
62.42	2336.0	1889.3
62.43	2308.0	1889.1
62.44	2308.0	1889.0
62.45	2255.0	1888.9
62.46	2282.0	1888.7
62.47	2298.0	1888.6
62.48	2296.0	1888.5
62.49	2299.0	1888.3
62.5	2285.0	1888.2
62.51	2244.0	1888.1
62.52	2281.0	1887.9
62.53	2291.0	1887.8
62.54	2271.0	1887.6
62.55	2283.0	1887.5
62.56	2303.0	1887.4
62.57	2290.0	1887.2
62.58	2280.0	1887.1
62.59	2260.0	1886.9
62.6	2240.0	1886.8
62.61	2245.0	1886.6
62.62	2248.0	1886.5
62.63	2237.0	1886.3
62.64	2252.0	1886.2
62.65	2253.0	1886.1
62.66	2241.0	1885.9
62.67	2264.0	1885.8
62.68	2267.0	1885.6
62.69	2270.0	1885.5
62.7	2187.0	1885.3
62.71	2176.0	1885.1
62.72	2208.0	1885.0
62.73	2240.0	1884.8
62.74	2261.0	1884.7
62.75	2240.0	1884.5
62.76	2237.0	1884.4
62.77	2208.0	1884.2
62.78	2241.0	1884.1
62.79	2249.0	1883.9
62.8	2260.0	1883.8
62.81	2257.0	1883.6
62.82	2268.0	1883.4
62.83	2228.0	1883.3
62.84	2173.0	1883.1
62.85	2196.0	1883.0
62.86	2189.0	1882.8
62.87	2179.0	1882.6
62.88	2200.0	1882.5
62.89	2214.0	1882.3
62.9	2185.0	1882.1
62.91	2186.0	1882.0
62.92	2210.0	1881.8
62.93	2224.0	1881.6
62.94	2218.0	1881.5
62.95	2237.0	1881.3
62.96	2251.0	1881.1
62.97	2219.0	1881.0
62.98	2171.0	1880.8
62.99	2155.0	1880.6
63.0	2154.0	1880.5
63.01	2206.0	1880.3
63.02	2234.0	1880.1
63.03	2172.0	1879.9
63.04	2214.0	1879.8
63.05	2236.0	1879.6
63.06	2247.0	1879.4
63.07	2242.0	1879.2
63.08	2141.0	1879.1
63.09	2142.0	1878.9
63.1	2140.0	1878.7
63.11	2160.0	1878.5
63.12	2200.0	1878.4
63.13	2193.0	1878.2
63.14	2165.0	1878.0
63.15	2132.0	1877.8
63.16	2172.0	1877.7
63.17	2172.0	1877.5
63.18	2162.0	1877.3
63.19	2182.0	1877.1
63.2	2211.0	1876.9
63.21	2208.0	1876.7
63.22	2224.0	1876.6
63.23	2212.0	1876.4
63.24	2181.0	1876.2
63.25	2170.0	1876.0
63.26	2154.0	1875.8
63.27	2166.0	1875.6
63.28	2141.0	1875.5
63.29	2179.0	1875.3
63.3	2184.0	1875.1
63.31	2200.0	1874.9
63.32	2206.0	1874.7
63.33	2100.0	1874.5
63.34	2160.0	1874.3
63.35	2167.0	1874.1
63.36	2189.0	1874.0
63.37	2184.0	1873.8
63.38	2172.0	1873.6
63.39	2117.0	1873.4
63.4	2135.0	1873.2
63.41	2201.0	1873.0
63.42	2208.0	1872.8
63.43	2111.0	1872.6
63.44	2144.0	1872.4
63.45	2148.0	1872.2
63.46	2141.0	1872.0
63.47	2241.0	1871.8
63.48	2203.0	1871.6
63.49	2140.0	1871.4
63.5	2084.0	1871.2
63.51	2066.0	1871.0
63.52	2119.0	1870.8
63.53	2187.0	1870.6
63.54	2144.0	1870.4
63.55	2184.0	1870.2
63.56	2155.0	1870.0
63.57	2124.0	1869.8
63.58	2123.0	1869.6
63.59	2173.0	1869.4
63.6	2219.0	1869.2
63.61	2167.0	1869.0
63.62	2167.0	1868.8
63.63	2141.0	1868.6
63.64	2141.0	1868.4
63.65	2124.0	1868.2
63.66	2097.0	1868.0
63.67	2129.0	1867.8
63.68	2117.0	1867.6
63.69	2151.0	1867.4
63.7	2122.0	1867.2
63.71	2116.0	1867.0
63.72	2154.0	1866.8
63.73	2174.0	1866.6
63.74	2163.0	1866.4
63.75	2155.0	1866.2
63.76	2132.0	1866.0
63.77	2124.0	1865.8
63.78	2177.0	1865.5
63.79	2130.0	1865.3
63.8	2155.0	1865.1
63.81	2131.0	1864.9
63.82	2121.0	1864.7
63.83	2112.0	1864.5
63.84	2119.0	1864.3
63.85	2105.0	1864.1
63.86	2106.0	1863.9
63.87	2101.0	1863.7
63.88	2095.0	1863.4
63.89	2086.0	1863.2
63.9	2098.0	1863.0
63.91	2086.0	1862.8
63.92	2098.0	1862.6
63.93	2129.0	1862.4
63.94	2106.0	1862.2
63.95	2102.0	1861.9
63.96	2162.0	1861.7
63.97	2140.0	1861.5
63.98	2155.0	1861.3
63.99	2136.0	1861.1
64.0	2115.0	1860.9
64.01	2058.0	1860.6
64.02	2060.0	1860.4
64.03	2097.0	1860.2
64.04	2111.0	1860.0
64.05	2152.0	1859.8
64.06	2121.0	1859.6
64.07	2071.0	1859.3
64.08	2064.0	1859.1
64.09	2108.0	1858.9
64.1	2108.0	1858.7
64.11	2072.0	1858.5
64.12	2130.0	1858.2
64.13	2142.0	1858.0
64.14	2106.0	1857.8
64.15	2090.0	1857.6
64.16	2113.0	1857.3
64.17	2119.0	1857.1
64.18	2113.0	1856.9
64.19	2157.0	1856.7
64.2	2119.0	1856.5
64.21	2111.0	1856.2
64.22	2113.0	1856.0
64.23	2057.0	1855.8
64.24	2125.0	1855.6
64.25	2148.0	1855.3
64.26	2127.0	1855.1
64.27	2112.0	1854.9
64.28	2107.0	1854.7
64.29	2122.0	1854.4
64.3	2080.0	1854.2
64.31	2059.0	1854.0
64.32	2078.0	1853.8
64.33	2118.0	1853.5
64.34	2126.0	1853.3
64.35	2117.0	1853.1
64.36	2106.0	1852.9
64.37	2110.0	1852.6
64.38	2057.0	1852.4
64.39	2065.0	1852.2
64.4	2062.0	1851.9
64.41	2050.0	1851.7
64.42	2105.0	1851.5
64.43	2157.0	1851.3
64.44	2096.0	1851.0
64.45	2069.0	1850.8
64.46	2048.0	1850.6
64.47	2072.0	1850.3
64.48	2069.0	1850.1
64.49	2068.0	1849.9
64.5	2095.0	1849.6
64.51	2054.0	1849.4
64.52	2086.0	1849.2
64.53	2044.0	1849.0
64.54	2090.0	1848.7
64.55	2118.0	1848.5
64.56	2076.0	1848.3
64.57	2069.0	1848.0
64.58	2063.0	1847.8
64.59	2051.0	1847.6
64.6	2096.0	1847.3
64.61	2159.0	1847.1
64.62	2122.0	1846.9
64.63	2083.0	1846.6
64.64	2039.0	1846.4
64.65	2114.0	1846.2
64.66	2074.0	1845.9
64.67	2057.0	1845.7
64.68	2050.0	1845.5
64.69	2051.0	1845.2
64.7	2096.0	1845.0
64.71	2087.0	1844.8
64.72	2106.0	1844.5
64.73	2028.0	1844.3
64.74	2037.0	1844.1
64.75	2116.0	1843.8
64.76	2131.0	1843.6
64.77	2164.0	1843.4
64.78	2132.0	1843.1
64.79	2080.0	1842.9
64.8	2117.0	1842.6
64.81	2128.0	1842.4
64.82	2145.0	1842.2
64.83	2100.0	1841.9
64.84	2077.0	1841.7
64.85	2038.0	1841.5
64.86	2079.0	1841.2
64.87	2131.0	1841.0
64.88	2077.0	1840.8
64.89	2032.0	1840.5
64.9	2086.0	1840.3
64.91	2121.0	1840.0
64.92	2094.0	1839.8
64.93	2108.0	1839.6
64.94	2115.0	1839.3
64.95	2136.0	1839.1
64.96	2114.0	1838.9
64.97	2067.0	1838.6
64.98	2033.0	1838.4
64.99	2110.0	1838.2
65.0	2097.0	1837.9
65.01	2085.0	1837.7
65.02	2095.0	1837.4
65.03	2102.0	1837.2
65.04	2097.0	1837.0
65.05	2084.0	1836.7
65.06	2060.0	1836.5
65.07	2021.0	1836.2
65.08	2041.0	1836.0
65.09	2111.0	1835.8
65.1	2070.0	1835.5
65.11	2032.0	1835.3
65.12	2028.0	1835.1
65.13	2022.0	1834.8
65.14	2042.0	1834.6
65.15	2079.0	1834.3
65.16	2099.0	1834.1
65.17	2032.0	1833.9
65.18	2058.0	1833.6
65.19	2077.0	1833.4
65.2	2096.0	1833.1
65.21	2053.0	1832.9
65.22	2086.0	1832.7
65.23	2061.0	1832.4
65.24	2040.0	1832.2
65.25	2068.0	1832.0
65.26	1995.0	1831.7
65.27	2016.0	1831.5
65.28	2022.0	1831.2
65.29	2017.0	1831.0
65.3	2018.0	1830.8
65.31	2071.0	1830.5
65.32	2017.0	1830.3
65.33	2021.0	1830.0
65.34	2009.0	1829.8
65.35	1966.0	1829.6
65.36	2016.0	1829.3
65.37	2051.0	1829.1
65.38	2074.0	1828.8
65.39	2027.0	1828.6
65.4	2047.0	1828.4
65.41	2034.0	1828.1
65.42	2007.0	1827.9
65.43	2050.0	1827.7
65.44	1996.0	1827.4
65.45	1976.0	1827.2
65.46	1995.0	1826.9
65.47	2012.0	1826.7
65.48	1994.0	1826.5
65.49	1947.0	1826.2
65.5	1985.0	1826.0
65.51	2019.0	1825.7
65.52	2008.0	1825.5
65.53	1994.0	1825.3
65.54	2064.0	1825.0
65.55	2052.0	1824.8
65.56	2009.0	1824.6
65.57	1954.0	1824.3
65.58	1927.0	1824.1
65.59	1932.0	1823.8
65.6	1979.0	1823.6
65.61	1972.0	1823.4
65.62	1966.0	1823.1
65.63	1928.0	1822.9
65.64	1983.0	1822.7
65.65	1960.0	1822.4
65.66	1964.0	1822.2
65.67	1964.0	1821.9
65.68	1980.0	1821.7
65.69	1949.0	1821.5
65.7	1980.0	1821.2
65.71	1976.0	1821.0
65.72	2000.0	1820.8
65.73	1971.0	1820.5
65.74	1913.0	1820.3
65.75	1967.0	1820.0
65.76	1947.0	1819.8
65.77	1950.0	1819.6
65.78	2052.0	1819.3
65.79	1995.0	1819.1
65.8	1984.0	1818.9
65.81	1939.0	1818.6
65.82	1933.0	1818.4
65.83	2018.0	1818.2
65.84	2001.0	1817.9
65.85	1986.0	1817.7
65.86	1981.0	1817.5
65.87	2017.0	1817.2
65.88	1951.0	1817.0
65.89	1964.0	1816.8
65.9	1948.0	1816.5
65.91	1957.0	1816.3
65.92	1946.0	1816.1
65.93	1930.0	1815.8
65.94	1949.0	1815.6
65.95	1939.0	1815.3
65.96	1945.0	1815.1
65.97	1971.0	1814.9
65.98	1902.0	1814.7
65.99	1919.0	1814.4
66.0	1941.0	1814.2
66.01	1949.0	1814.0
66.02	1898.0	1813.7
66.03	1916.0	1813.5
66.04	1950.0	1813.3
66.05	1961.0	1813.0
66.06	1900.0	1812.8
66.07	1940.0	1812.6
66.08	1938.0	1812.3
66.09	1947.0	1812.1
66.1	1913.0	1811.9
66.11	1938.0	1811.6
66.12	2029.0	1811.4
66.13	2005.0	1811.2
66.14	1954.0	1810.9
66.15	1913.0	1810.7
66.16	1947.0	1810.5
66.17	2009.0	1810.3
66.18	2006.0	1810.0
66.19	2036.0	1809.8
66.2	2004.0	1809.6
66.21	1956.0	1809.3
66.22	1967.0	1809.1
66.23	1941.0	1808.9
66.24	1910.0	1808.7
66.25	1966.0	1808.4
66.26	1933.0	1808.2
66.27	1931.0	1808.0
66.28	1908.0	1807.7
66.29	1885.0	1807.5
66.3	1902.0	1807.3
66.31	1953.0	1807.1
66.32	1988.0	1806.8
66.33	2043.0	1806.6
66.34	1946.0	1806.4
66.35	1998.0	1806.2
66.36	2009.0	1805.9
66.37	2012.0	1805.7
66.38	2030.0	1805.5
66.39	1996.0	1805.3
66.4	1960.0	1805.0
66.41	2003.0	1804.8
66.42	1996.0	1804.6
66.43	1968.0	1804.4
66.44	2053.0	1804.2
66.45	2065.0	1803.9
66.46	2040.0	1803.7
66.47	2002.0	1803.5
66.48	2012.0	1803.3
66.49	1994.0	1803.0
66.5	2005.0	1802.8
66.51	2043.0	1802.6
66.52	2025.0	1802.4
66.53	1938.0	1802.2
66.54	1960.0	1801.9
66.55	1997.0	1801.7
66.56	2047.0	1801.5
66.57	2004.0	1801.3
66.58	1962.0	1801.1
66.59	1990.0	1800.9
66.6	1975.0	1800.6
66.61	1941.0	1800.4
66.62	1963.0	1800.2
66.63	1967.0	1800.0
66.64	1992.0	1799.8
66.65	1969.0	1799.6
66.66	1989.0	1799.3
66.67	1995.0	1799.1
66.68	1984.0	1798.9
66.69	1941.0	1798.7
66.7	1946.0	1798.5
66.71	1972.0	1798.3
66.72	1985.0	1798.1
66.73	1924.0	1797.8
66.74	1991.0	1797.6
66.75	2005.0	1797.4
66.76	1949.0	1797.2
66.77	1887.0	1797.0
66.78	1924.0	1796.8
66.79	2009.0	1796.6
66.8	1997.0	1796.4
66.81	1995.0	1796.2
66.82	1976.0	1795.9
66.83	1984.0	1795.7
66.84	1961.0	1795.5
66.85	1939.0	1795.3
66.86	1973.0	1795.1
66.87	2004.0	1794.9
66.88	1961.0	1794.7
66.89	1909.0	1794.5
66.9	1931.0	1794.3
66.91	1943.0	1794.1
66.92	1920.0	1793.9
66.93	1968.0	1793.7
66.94	1951.0	1793.5
66.95	1967.0	1793.3
66.96	1953.0	1793.0
66.97	1898.0	1792.8
66.98	1891.0	1792.6
66.99	1906.0	1792.4
67.0	1895.0	1792.2
67.01	1885.0	1792.0
67.02	1889.0	1791.8
67.03	1900.0	1791.6
67.04	1902.0	1791.4
67.05	1851.0	1791.2
67.06	1875.0	1791.0
67.07	1900.0	1790.8
67.08	1889.0	1790.6
67.09	1924.0	1790.4
67.1	1898.0	1790.2
67.11	1837.0	1790.0
67.12	1919.0	1789.8
67.13	1838.0	1789.6
67.14	1863.0	1789.5
67.15	1872.0	1789.3
67.16	1869.0	1789.1
67.17	1836.0	1788.9
67.18	1853.0	1788.7
67.19	1904.0	1788.5
67.2	1858.0	1788.3
67.21	1880.0	1788.1
67.22	1884.0	1787.9
67.23	1906.0	1787.7
67.24	1857.0	1787.5
67.25	1865.0	1787.3
67.26	1918.0	1787.1
67.27	1925.0	1786.9
67.28	1874.0	1786.8
67.29	1836.0	1786.6
67.3	1906.0	1786.4
67.31	1868.0	1786.2
67.32	1889.0	1786.0
67.33	1839.0	1785.8
67.34	1765.0	1785.6
67.35	1833.0	1785.5
67.36	1796.0	1785.3
67.37	1817.0	1785.1
67.38	1840.0	1784.9
67.39	1814.0	1784.7
67.4	1854.0	1784.5
67.41	1862.0	1784.3
67.42	1872.0	1784.2
67.43	1829.0	1784.0
67.44	1851.0	1783.8
67.45	1833.0	1783.6
67.46	1769.0	1783.4
67.47	1792.0	1783.3
67.48	1841.0	1783.1
67.49	1820.0	1782.9
67.5	1818.0	1782.7
67.51	1808.0	1782.6
67.52	1845.0	1782.4
67.53	1830.0	1782.2
67.54	1853.0	1782.0
67.55	1869.0	1781.9
67.56	1851.0	1781.7
67.57	1794.0	1781.5
67.58	1814.0	1781.3
67.59	1835.0	1781.2
67.6	1855.0	1781.0
67.61	1831.0	1780.8
67.62	1849.0	1780.7
67.63	1873.0	1780.5
67.64	1886.0	1780.3
67.65	1831.0	1780.1
67.66	1829.0	1780.0
67.67	1839.0	1779.8
67.68	1840.0	1779.6
67.69	1820.0	1779.5
67.7	1835.0	1779.3
67.71	1857.0	1779.1
67.72	1862.0	1779.0
67.73	1892.0	1778.8
67.74	1831.0	1778.7
67.75	1816.0	1778.5
67.76	1807.0	1778.3
67.77	1822.0	1778.2
67.78	1862.0	1778.0
67.79	1761.0	1777.8
67.8	1738.0	1777.7
67.81	1790.0	1777.5
67.82	1782.0	1777.4
67.83	1849.0	1777.2
67.84	1862.0	1777.1
67.85	1841.0	1776.9
67.86	1839.0	1776.7
67.87	1824.0	1776.6
67.88	1797.0	1776.4
67.89	1801.0	1776.3
67.9	1797.0	1776.1
67.91	1814.0	1776.0
67.92	1872.0	1775.8
67.93	1832.0	1775.7
67.94	1826.0	1775.5
67.95	1837.0	1775.4
67.96	1849.0	1775.2
67.97	1867.0	1775.1
67.98	1827.0	1774.9
67.99	1774.0	1774.8
68.0	1775.0	1774.6
68.01	1838.0	1774.5
68.02	1859.0	1774.3
68.03	1782.0	1774.2
68.04	1755.0	1774.1
68.05	1802.0	1773.9
68.06	1795.0	1773.8
68.07	1857.0	1773.6
68.08	1837.0	1773.5
68.09	1833.0	1773.3
68.1	1842.0	1773.2
68.11	1831.0	1773.1
68.12	1809.0	1772.9
68.13	1797.0	1772.8
68.14	1814.0	1772.6
68.15	1878.0	1772.5
68.16	1848.0	1772.4
68.17	1798.0	1772.2
68.18	1788.0	1772.1
68.19	1817.0	1772.0
68.2	1828.0	1771.8
68.21	1797.0	1771.7
68.22	1825.0	1771.6
68.23	1795.0	1771.4
68.24	1796.0	1771.3
68.25	1828.0	1771.2
68.26	1801.0	1771.0
68.27	1790.0	1770.9
68.28	1780.0	1770.8
68.29	1821.0	1770.6
68.3	1795.0	1770.5
68.31	1793.0	1770.4
68.32	1852.0	1770.3
68.33	1880.0	1770.1
68.34	1870.0	1770.0
68.35	1857.0	1769.9
68.36	1841.0	1769.8
68.37	1805.0	1769.6
68.38	1772.0	1769.5
68.39	1756.0	1769.4
68.4	1753.0	1769.3
68.41	1808.0	1769.1
68.42	1770.0	1769.0
68.43	1814.0	1768.9
68.44	1835.0	1768.8
68.45	1812.0	1768.6
68.46	1803.0	1768.5
68.47	1825.0	1768.4
68.48	1789.0	1768.3
68.49	1801.0	1768.2
68.5	1853.0	1768.1
68.51	1867.0	1767.9
68.52	1819.0	1767.8
68.53	1860.0	1767.7
68.54	1877.0	1767.6
68.55	1844.0	1767.5
68.56	1826.0	1767.4
68.57	1863.0	1767.3
68.58	1818.0	1767.1
68.59	1857.0	1767.0
68.6	1889.0	1766.9
68.61	1852.0	1766.8
68.62	1752.0	1766.7
68.63	1813.0	1766.6
68.64	1789.0	1766.5
68.65	1835.0	1766.4
68.66	1814.0	1766.3
68.67	1822.0	1766.1
68.68	1836.0	1766.0
68.69	1825.0	1765.9
68.7	1779.0	1765.8
68.71	1836.0	1765.7
68.72	1865.0	1765.6
68.73	1905.0	1765.5
68.74	1863.0	1765.4
68.75	1856.0	1765.3
68.76	1864.0	1765.2
68.77	1794.0	1765.1
68.78	1819.0	1765.0
68.79	1877.0	1764.9
68.8	1863.0	1764.8
68.81	1919.0	1764.7
68.82	1903.0	1764.6
68.83	1899.0	1764.5
68.84	1805.0	1764.4
68.85	1827.0	1764.3
68.86	1805.0	1764.2
68.87	1823.0	1764.1
68.88	1857.0	1764.0
68.89	1861.0	1763.9
68.9	1855.0	1763.8
68.91	1864.0	1763.7
68.92	1828.0	1763.6
68.93	1831.0	1763.5
68.94	1781.0	1763.4
68.95	1781.0	1763.3
68.96	1814.0	1763.2
68.97	1810.0	1763.1
68.98	1859.0	1763.1
68.99	1851.0	1763.0
69.0	1825.0	1762.9
69.01	1838.0	1762.8
69.02	1895.0	1762.7
69.03	1845.0	1762.6
69.04	1795.0	1762.5
69.05	1875.0	1762.4
69.06	1877.0	1762.3
69.07	1854.0	1762.3
69.08	1835.0	1762.2
69.09	1855.0	1762.1
69.1	1874.0	1762.0
69.11	1860.0	1761.9
69.12	1811.0	1761.8
69.13	1828.0	1761.7
69.14	1818.0	1761.7
69.15	1811.0	1761.6
69.16	1811.0	1761.5
69.17	1781.0	1761.4
69.18	1782.0	1761.3
69.19	1817.0	1761.2
69.2	1831.0	1761.2
69.21	1813.0	1761.1
69.22	1770.0	1761.0
69.23	1797.0	1760.9
69.24	1859.0	1760.8
69.25	1884.0	1760.8
69.26	1869.0	1760.7
69.27	1848.0	1760.6
69.28	1915.0	1760.5
69.29	1865.0	1760.5
69.3	1857.0	1760.4
69.31	1903.0	1760.3
69.32	1881.0	1760.2
69.33	1831.0	1760.1
69.34	1795.0	1760.1
69.35	1821.0	1760.0
69.36	1866.0	1759.9
69.37	1861.0	1759.9
69.38	1833.0	1759.8
69.39	1820.0	1759.7
69.4	1858.0	1759.6
69.41	1793.0	1759.6
69.42	1815.0	1759.5
69.43	1829.0	1759.4
69.44	1808.0	1759.4
69.45	1899.0	1759.3
69.46	1875.0	1759.2
69.47	1846.0	1759.1
69.48	1790.0	1759.1
69.49	1834.0	1759.0
69.5	1877.0	1758.9
69.51	1862.0	1758.9
69.52	1883.0	1758.8
69.53	1860.0	1758.7
69.54	1834.0	1758.7
69.55	1847.0	1758.6
69.56	1863.0	1758.5
69.57	1846.0	1758.5
69.58	1851.0	1758.4
69.59	1856.0	1758.4
69.6	1806.0	1758.3
69.61	1837.0	1758.2
69.62	1850.0	1758.2
69.63	1824.0	1758.1
69.64	1813.0	1758.0
69.65	1816.0	1758.0
69.66	1863.0	1757.9
69.67	1867.0	1757.9
69.68	1830.0	1757.8
69.69	1819.0	1757.7
69.7	1841.0	1757.7
69.71	1851.0	1757.6
69.72	1835.0	1757.6
69.73	1855.0	1757.5
69.74	1836.0	1757.5
69.75	1875.0	1757.4
69.76	1859.0	1757.3
69.77	1854.0	1757.3
69.78	1836.0	1757.2
69.79	1843.0	1757.2
69.8	1851.0	1757.1
69.81	1836.0	1757.1
69.82	1853.0	1757.0
69.83	1830.0	1757.0
69.84	1797.0	1756.9
69.85	1813.0	1756.9
69.86	1845.0	1756.8
69.87	1863.0	1756.7
69.88	1871.0	1756.7
69.89	1893.0	1756.6
69.9	1857.0	1756.6
69.91	1893.0	1756.5
69.92	1874.0	1756.5
69.93	1848.0	1756.4
69.94	1843.0	1756.4
69.95	1850.0	1756.3
69.96	1843.0	1756.3
69.97	1831.0	1756.3
69.98	1839.0	1756.2
69.99	1824.0	1756.2
70.0	1860.0	1756.1
70.01	1910.0	1756.1
70.02	1867.0	1756.0
70.03	1869.0	1756.0
70.04	1853.0	1755.9
70.05	1835.0	1755.9
70.06	1810.0	1755.8
70.07	1796.0	1755.8
70.08	1814.0	1755.7
70.09	1907.0	1755.7
70.1	1933.0	1755.7
70.11	1899.0	1755.6
70.12	1889.0	1755.6
70.13	1863.0	1755.5
70.14	1816.0	1755.5
70.15	1848.0	1755.5
70.16	1889.0	1755.4
70.17	1869.0	1755.4
70.18	1846.0	1755.3
70.19	1871.0	1755.3
70.2	1916.0	1755.3
70.21	1915.0	1755.2
70.22	1909.0	1755.2
70.23	1871.0	1755.1
70.24	1849.0	1755.1
70.25	1876.0	1755.1
70.26	1876.0	1755.0
70.27	1912.0	1755.0
70.28	1885.0	1755.0
70.29	1889.0	1754.9
70.3	1814.0	1754.9
70.31	1844.0	1754.8
70.32	1851.0	1754.8
70.33	1849.0	1754.8
70.34	1826.0	1754.7
70.35	1819.0	1754.7
70.36	1845.0	1754.7
70.37	1829.0	1754.6
70.38	1885.0	1754.6
70.39	1886.0	1754.6
70.4	1851.0	1754.5
70.41	1816.0	1754.5
70.42	1851.0	1754.5
70.43	1886.0	1754.4
70.44	1863.0	1754.4
70.45	1849.0	1754.4
70.46	1887.0	1754.4
70.47	1857.0	1754.3
70.48	1831.0	1754.3
70.49	1827.0	1754.3
70.5	1842.0	1754.2
70.51	1882.0	1754.2
70.52	1810.0	1754.2
70.53	1830.0	1754.1
70.54	1823.0	1754.1
70.55	1873.0	1754.1
70.56	1888.0	1754.1
70.57	1845.0	1754.0
70.58	1837.0	1754.0
70.59	1803.0	1754.0
70.6	1819.0	1754.0
70.61	1840.0	1753.9
70.62	1908.0	1753.9
70.63	1862.0	1753.9
70.64	1821.0	1753.9
70.65	1848.0	1753.8
70.66	1869.0	1753.8
70.67	1833.0	1753.8
70.68	1811.0	1753.8
70.69	1822.0	1753.7
70.7	1818.0	1753.7
70.71	1885.0	1753.7
70.72	1936.0	1753.7
70.73	1900.0	1753.6
70.74	1836.0	1753.6
70.75	1823.0	1753.6
70.76	1792.0	1753.6
70.77	1801.0	1753.6
70.78	1839.0	1753.5
70.79	1827.0	1753.5
70.8	1864.0	1753.5
70.81	1789.0	1753.5
70.82	1764.0	1753.5
70.83	1774.0	1753.4
70.84	1781.0	1753.4
70.85	1818.0	1753.4
70.86	1852.0	1753.4
70.87	1883.0	1753.4
70.88	1865.0	1753.4
70.89	1866.0	1753.3
70.9	1819.0	1753.3
70.91	1814.0	1753.3
70.92	1870.0	1753.3
70.93	1864.0	1753.3
70.94	1859.0	1753.3
70.95	1790.0	1753.2
70.96	1840.0	1753.2
70.97	1856.0	1753.2
70.98	1855.0	1753.2
70.99	1826.0	1753.2
71.0	1876.0	1753.2
71.01	1857.0	1753.1
71.02	1869.0	1753.1
71.03	1806.0	1753.1
71.04	1856.0	1753.1
71.05	1874.0	1753.1
71.06	1848.0	1753.1
71.07	1782.0	1753.1
71.08	1787.0	1753.1
71.09	1847.0	1753.0
71.1	1830.0	1753.0
71.11	1816.0	1753.0
71.12	1822.0	1753.0
71.13	1860.0	1753.0
71.14	1893.0	1753.0
71.15	1855.0	1753.0
71.16	1862.0	1753.0
71.17	1821.0	1753.0
71.18	1835.0	1752.9
71.19	1782.0	1752.9
71.2	1800.0	1752.9
71.21	1815.0	1752.9
71.22	1873.0	1752.9
71.23	1847.0	1752.9
71.24	1846.0	1752.9
71.25	1855.0	1752.9
71.26	1828.0	1752.9
71.27	1831.0	1752.9
71.28	1817.0	1752.9
71.29	1841.0	1752.9
71.3	1846.0	1752.8
71.31	1847.0	1752.8
71.32	1866.0	1752.8
71.33	1863.0	1752.8
71.34	1822.0	1752.8
71.35	1876.0	1752.8
71.36	1874.0	1752.8
71.37	1873.0	1752.8
71.38	1867.0	1752.8
71.39	1805.0	1752.8
71.4	1860.0	1752.8
71.41	1833.0	1752.8
71.42	1832.0	1752.8
71.43	1858.0	1752.8
71.44	1875.0	1752.8
71.45	1829.0	1752.8
71.46	1793.0	1752.8
71.47	1813.0	1752.8
71.48	1827.0	1752.8
71.49	1853.0	1752.8
71.5	1835.0	1752.8
71.51	1797.0	1752.8
71.52	1844.0	1752.7
71.53	1831.0	1752.7
71.54	1818.0	1752.7
71.55	1820.0	1752.7
71.56	1830.0	1752.7
71.57	1821.0	1752.7
71.58	1798.0	1752.7
71.59	1837.0	1752.7
71.6	1801.0	1752.7
71.61	1770.0	1752.7
71.62	1825.0	1752.7
71.63	1840.0	1752.7
71.64	1841.0	1752.7
71.65	1806.0	1752.7
71.66	1814.0	1752.7
71.67	1825.0	1752.7
71.68	1884.0	1752.7
71.69	1866.0	1752.7
71.7	1812.0	1752.7
71.71	1828.0	1752.7
71.72	1787.0	1752.7
71.73	1773.0	1752.7
71.74	1792.0	1752.7
71.75	1794.0	1752.8
71.76	1816.0	1752.8
71.77	1850.0	1752.8
71.78	1832.0	1752.8
71.79	1805.0	1752.8
71.8	1798.0	1752.8
71.81	1863.0	1752.8
71.82	1898.0	1752.8
71.83	1902.0	1752.8
71.84	1845.0	1752.8
71.85	1827.0	1752.8
71.86	1835.0	1752.8
71.87	1819.0	1752.8
71.88	1818.0	1752.8
71.89	1818.0	1752.8
71.9	1808.0	1752.8
71.91	1830.0	1752.8
71.92	1851.0	1752.8
71.93	1824.0	1752.8
71.94	1792.0	1752.8
71.95	1818.0	1752.8
71.96	1822.0	1752.8
71.97	1831.0	1752.8
71.98	1815.0	1752.8
71.99	1819.0	1752.9
72.0	1814.0	1752.9
72.01	1836.0	1752.9
72.02	1844.0	1752.9
72.03	1790.0	1752.9
72.04	1767.0	1752.9
72.05	1764.0	1752.9
72.06	1836.0	1752.9
72.07	1880.0	1752.9
72.08	1830.0	1752.9
72.09	1822.0	1752.9
72.1	1837.0	1752.9
72.11	1808.0	1752.9
72.12	1799.0	1752.9
72.13	1826.0	1753.0
72.14	1822.0	1753.0
72.15	1846.0	1753.0
72.16	1866.0	1753.0
72.17	1854.0	1753.0
72.18	1842.0	1753.0
72.19	1860.0	1753.0
72.2	1884.0	1753.0
72.21	1860.0	1753.0
72.22	1827.0	1753.0
72.23	1807.0	1753.0
72.24	1829.0	1753.0
72.25	1831.0	1753.1
72.26	1831.0	1753.1
72.27	1846.0	1753.1
72.28	1860.0	1753.1
72.29	1820.0	1753.1
72.3	1848.0	1753.1
72.31	1822.0	1753.1
72.32	1842.0	1753.1
72.33	1853.0	1753.1
72.34	1827.0	1753.1
72.35	1829.0	1753.2
72.36	1813.0	1753.2
72.37	1784.0	1753.2
72.38	1817.0	1753.2
72.39	1815.0	1753.2
72.4	1827.0	1753.2
72.41	1781.0	1753.2
72.42	1794.0	1753.2
72.43	1841.0	1753.2
72.44	1835.0	1753.3
72.45	1840.0	1753.3
72.46	1833.0	1753.3
72.47	1823.0	1753.3
72.48	1794.0	1753.3
72.49	1798.0	1753.3
72.5	1805.0	1753.3
72.51	1864.0	1753.3
72.52	1865.0	1753.4
72.53	1825.0	1753.4
72.54	1784.0	1753.4
72.55	1763.0	1753.4
72.56	1783.0	1753.4
72.57	1794.0	1753.4
72.58	1800.0	1753.4
72.59	1839.0	1753.4
72.6	1827.0	1753.5
72.61	1877.0	1753.5
72.62	1885.0	1753.5
72.63	1831.0	1753.5
72.64	1780.0	1753.5
72.65	1766.0	1753.5
72.66	1810.0	1753.5
72.67	1801.0	1753.6
72.68	1799.0	1753.6
72.69	1816.0	1753.6
72.7	1832.0	1753.6
72.71	1751.0	1753.6
72.72	1794.0	1753.6
72.73	1877.0	1753.6
72.74	1865.0	1753.6
72.75	1837.0	1753.7
72.76	1791.0	1753.7
72.77	1781.0	1753.7
72.78	1842.0	1753.7
72.79	1852.0	1753.7
72.8	1816.0	1753.7
72.81	1767.0	1753.7
72.82	1786.0	1753.8
72.83	1836.0	1753.8
72.84	1799.0	1753.8
72.85	1809.0	1753.8
72.86	1813.0	1753.8
72.87	1808.0	1753.8
72.88	1804.0	1753.8
72.89	1780.0	1753.9
72.9	1806.0	1753.9
72.91	1879.0	1753.9
72.92	1865.0	1753.9
72.93	1812.0	1753.9
72.94	1802.0	1753.9
72.95	1827.0	1754.0
72.96	1824.0	1754.0
72.97	1780.0	1754.0
72.98	1791.0	1754.0
72.99	1808.0	1754.0
73.0	1822.0	1754.0
73.01	1863.0	1754.0
73.02	1795.0	1754.1
73.03	1800.0	1754.1
73.04	1837.0	1754.1
73.05	1852.0	1754.1
73.06	1826.0	1754.1
73.07	1834.0	1754.1
73.08	1866.0	1754.1
73.09	1807.0	1754.2
73.1	1790.0	1754.2
73.11	1806.0	1754.2
73.12	1772.0	1754.2
73.13	1783.0	1754.2
73.14	1843.0	1754.2
73.15	1808.0	1754.3
73.16	1777.0	1754.3
73.17	1811.0	1754.3
73.18	1812.0	1754.3
73.19	1796.0	1754.3
73.2	1810.0	1754.3
73.21	1819.0	1754.3
73.22	1846.0	1754.4
73.23	1820.0	1754.4
73.24	1791.0	1754.4
73.25	1778.0	1754.4
73.26	1818.0	1754.4
73.27	1816.0	1754.4
73.28	1860.0	1754.5
73.29	1814.0	1754.5
73.3	1770.0	1754.5
73.31	1774.0	1754.5
73.32	1832.0	1754.5
73.33	1843.0	1754.5
73.34	1834.0	1754.5
73.35	1828.0	1754.6
73.36	1841.0	1754.6
73.37	1820.0	1754.6
73.38	1849.0	1754.6
73.39	1855.0	1754.6
73.4	1835.0	1754.6
73.41	1798.0	1754.7
73.42	1754.0	1754.7
73.43	1730.0	1754.7
73.44	1744.0	1754.7
73.45	1785.0	1754.7
73.46	1828.0	1754.7
73.47	1810.0	1754.7
73.48	1774.0	1754.8
73.49	1771.0	1754.8
73.5	1811.0	1754.8
73.51	1738.0	1754.8
73.52	1821.0	1754.8
73.53	1796.0	1754.8
73.54	1802.0	1754.9
73.55	1805.0	1754.9
73.56	1779.0	1754.9
73.57	1787.0	1754.9
73.58	1782.0	1754.9
73.59	1809.0	1754.9
73.6	1767.0	1754.9
73.61	1719.0	1755.0
73.62	1728.0	1755.0
73.63	1766.0	1755.0
73.64	1750.0	1755.0
73.65	1778.0	1755.0
73.66	1811.0	1755.0
73.67	1778.0	1755.0
73.68	1813.0	1755.1
73.69	1857.0	1755.1
73.7	1889.0	1755.1
73.71	1829.0	1755.1
73.72	1743.0	1755.1
73.73	1782.0	1755.1
73.74	1800.0	1755.1
73.75	1799.0	1755.2
73.76	1845.0	1755.2
73.77	1829.0	1755.2
73.78	1776.0	1755.2
73.79	1814.0	1755.2
73.8	1840.0	1755.2
73.81	1836.0	1755.2
73.82	1843.0	1755.3
73.83	1804.0	1755.3
73.84	1763.0	1755.3
73.85	1743.0	1755.3
73.86	1752.0	1755.3
73.87	1803.0	1755.3
73.88	1801.0	1755.3
73.89	1836.0	1755.4
73.9	1811.0	1755.4
73.91	1847.0	1755.4
73.92	1812.0	1755.4
73.93	1810.0	1755.4
73.94	1734.0	1755.4
73.95	1757.0	1755.4
73.96	1816.0	1755.4
73.97	1827.0	1755.5
73.98	1742.0	1755.5
73.99	1781.0	1755.5
74.0	1785.0	1755.5
74.01	1752.0	1755.5
74.02	1776.0	1755.5
74.03	1793.0	1755.5
74.04	1780.0	1755.5
74.05	1775.0	1755.5
74.06	1791.0	1755.6
74.07	1755.0	1755.6
74.08	1807.0	1755.6
74.09	1822.0	1755.6
74.1	1804.0	1755.6
74.11	1822.0	1755.6
74.12	1800.0	1755.6
74.13	1815.0	1755.6
74.14	1823.0	1755.7
74.15	1846.0	1755.7
74.16	1827.0	1755.7
74.17	1801.0	1755.7
74.18	1800.0	1755.7
74.19	1771.0	1755.7
74.2	1730.0	1755.7
74.21	1780.0	1755.7
74.22	1810.0	1755.7
74.23	1807.0	1755.7
74.24	1757.0	1755.8
74.25	1786.0	1755.8
74.26	1849.0	1755.8
74.27	1833.0	1755.8
74.28	1824.0	1755.8
74.29	1835.0	1755.8
74.3	1822.0	1755.8
74.31	1841.0	1755.8
74.32	1869.0	1755.8
74.33	1842.0	1755.8
74.34	1828.0	1755.8
74.35	1818.0	1755.9
74.36	1807.0	1755.9
74.37	1843.0	1755.9
74.38	1874.0	1755.9
74.39	1806.0	1755.9
74.4	1799.0	1755.9
74.41	1759.0	1755.9
74.42	1781.0	1755.9
74.43	1790.0	1755.9
74.44	1806.0	1755.9
74.45	1827.0	1755.9
74.46	1806.0	1755.9
74.47	1812.0	1755.9
74.48	1819.0	1756.0
74.49	1798.0	1756.0
74.5	1808.0	1756.0
74.51	1802.0	1756.0
74.52	1810.0	1756.0
74.53	1806.0	1756.0
74.54	1815.0	1756.0
74.55	1753.0	1756.0
74.56	1797.0	1756.0
74.57	1803.0	1756.0
74.58	1779.0	1756.0
74.59	1760.0	1756.0
74.6	1791.0	1756.0
74.61	1799.0	1756.0
74.62	1778.0	1756.0
74.63	1766.0	1756.0
74.64	1787.0	1756.0
74.65	1791.0	1756.0
74.66	1790.0	1756.0
74.67	1785.0	1756.1
74.68	1755.0	1756.1
74.69	1738.0	1756.1
74.7	1809.0	1756.1
74.71	1829.0	1756.1
74.72	1820.0	1756.1
74.73	1790.0	1756.1
74.74	1768.0	1756.1
74.75	1800.0	1756.1
74.76	1793.0	1756.1
74.77	1778.0	1756.1
74.78	1772.0	1756.1
74.79	1800.0	1756.1
74.8	1800.0	1756.1
74.81	1716.0	1756.1
74.82	1728.0	1756.1
74.83	1781.0	1756.1
74.84	1807.0	1756.1
74.85	1803.0	1756.1
74.86	1767.0	1756.1
74.87	1773.0	1756.1
74.88	1768.0	1756.1
74.89	1781.0	1756.1
74.9	1804.0	1756.1
74.91	1788.0	1756.1
74.92	1821.0	1756.1
74.93	1845.0	1756.1
74.94	1844.0	1756.1
74.95	1805.0	1756.1
74.96	1815.0	1756.1
74.97	1782.0	1756.1
74.98	1799.0	1756.1
74.99	1816.0	1756.1
75.0	1764.0	1756.1
75.01	1778.0	1756.1
75.02	1760.0	1756.1
75.03	1802.0	1756.1
75.04	1819.0	1756.1
75.05	1815.0	1756.1
75.06	1774.0	1756.1
75.07	1799.0	1756.1
75.08	1804.0	1756.1
75.09	1785.0	1756.1
75.1	1797.0	1756.0
75.11	1804.0	1756.0
75.12	1797.0	1756.0
75.13	1752.0	1756.0
75.14	1800.0	1756.0
75.15	1866.0	1756.0
75.16	1827.0	1756.0
75.17	1765.0	1756.0
75.18	1783.0	1756.0
75.19	1836.0	1756.0
75.2	1833.0	1756.0
75.21	1840.0	1756.0
75.22	1809.0	1756.0
75.23	1845.0	1756.0
75.24	1881.0	1756.0
75.25	1811.0	1756.0
75.26	1796.0	1756.0
75.27	1766.0	1756.0
75.28	1754.0	1755.9
75.29	1759.0	1755.9
75.3	1808.0	1755.9
75.31	1784.0	1755.9
75.32	1765.0	1755.9
75.33	1798.0	1755.9
75.34	1813.0	1755.9
75.35	1794.0	1755.9
75.36	1804.0	1755.9
75.37	1814.0	1755.9
75.38	1805.0	1755.9
75.39	1814.0	1755.9
75.4	1815.0	1755.9
75.41	1798.0	1755.8
75.42	1825.0	1755.8
75.43	1794.0	1755.8
75.44	1851.0	1755.8
75.45	1826.0	1755.8
75.46	1803.0	1755.8
75.47	1768.0	1755.8
75.48	1734.0	1755.8
75.49	1783.0	1755.8
75.5	1791.0	1755.8
75.51	1740.0	1755.7
75.52	1766.0	1755.7
75.53	1825.0	1755.7
75.54	1798.0	1755.7
75.55	1787.0	1755.7
75.56	1818.0	1755.7
75.57	1815.0	1755.7
75.58	1837.0	1755.7
75.59	1786.0	1755.7
75.6	1756.0	1755.6
75.61	1767.0	1755.6
75.62	1794.0	1755.6
75.63	1825.0	1755.6
75.64	1810.0	1755.6
75.65	1838.0	1755.6
75.66	1863.0	1755.6
75.67	1811.0	1755.6
75.68	1802.0	1755.5
75.69	1782.0	1755.5
75.7	1813.0	1755.5
75.71	1829.0	1755.5
75.72	1861.0	1755.5
75.73	1894.0	1755.5
75.74	1826.0	1755.5
75.75	1786.0	1755.4
75.76	1788.0	1755.4
75.77	1822.0	1755.4
75.78	1831.0	1755.4
75.79	1838.0	1755.4
75.8	1877.0	1755.4
75.81	1859.0	1755.4
75.82	1800.0	1755.3
75.83	1766.0	1755.3
75.84	1776.0	1755.3
75.85	1791.0	1755.3
75.86	1804.0	1755.3
75.87	1794.0	1755.3
75.88	1811.0	1755.2
75.89	1799.0	1755.2
75.9	1843.0	1755.2
75.91	1825.0	1755.2
75.92	1812.0	1755.2
75.93	1771.0	1755.2
75.94	1738.0	1755.1
75.95	1790.0	1755.1
75.96	1712.0	1755.1
75.97	1743.0	1755.1
75.98	1786.0	1755.1
75.99	1832.0	1755.1
76.0	1805.0	1755.0
76.01	1822.0	1755.0
76.02	1830.0	1755.0
76.03	1832.0	1755.0
76.04	1809.0	1755.0
76.05	1797.0	1754.9
76.06	1801.0	1754.9
76.07	1744.0	1754.9
76.08	1783.0	1754.9
76.09	1796.0	1754.9
76.1	1841.0	1754.8
76.11	1864.0	1754.8
76.12	1856.0	1754.8
76.13	1810.0	1754.8
76.14	1784.0	1754.8
76.15	1755.0	1754.8
76.16	1742.0	1754.7
76.17	1795.0	1754.7
76.18	1804.0	1754.7
76.19	1782.0	1754.7
76.2	1812.0	1754.6
76.21	1802.0	1754.6
76.22	1818.0	1754.6
76.23	1817.0	1754.6
76.24	1878.0	1754.6
76.25	1843.0	1754.5
76.26	1827.0	1754.5
76.27	1830.0	1754.5
76.28	1784.0	1754.5
76.29	1819.0	1754.5
76.3	1838.0	1754.4
76.31	1767.0	1754.4
76.32	1762.0	1754.4
76.33	1749.0	1754.4
76.34	1767.0	1754.3
76.35	1777.0	1754.3
76.36	1816.0	1754.3
76.37	1836.0	1754.3
76.38	1812.0	1754.3
76.39	1796.0	1754.2
76.4	1801.0	1754.2
76.41	1783.0	1754.2
76.42	1800.0	1754.2
76.43	1821.0	1754.1
76.44	1831.0	1754.1
76.45	1861.0	1754.1
76.46	1820.0	1754.1
76.47	1797.0	1754.0
76.48	1800.0	1754.0
76.49	1821.0	1754.0
76.5	1829.0	1754.0
76.51	1824.0	1753.9
76.52	1814.0	1753.9
76.53	1806.0	1753.9
76.54	1809.0	1753.9
76.55	1808.0	1753.8
76.56	1814.0	1753.8
76.57	1783.0	1753.8
76.58	1801.0	1753.8
76.59	1861.0	1753.7
76.6	1849.0	1753.7
76.61	1845.0	1753.7
76.62	1833.0	1753.7
76.63	1849.0	1753.6
76.64	1853.0	1753.6
76.65	1842.0	1753.6
76.66	1779.0	1753.6
76.67	1824.0	1753.5
76.68	1844.0	1753.5
76.69	1816.0	1753.5
76.7	1851.0	1753.4
76.71	1882.0	1753.4
76.72	1848.0	1753.4
76.73	1789.0	1753.4
76.74	1795.0	1753.3
76.75	1766.0	1753.3
76.76	1833.0	1753.3
76.77	1891.0	1753.3
76.78	1846.0	1753.2
76.79	1792.0	1753.2
76.8	1795.0	1753.2
76.81	1840.0	1753.1
76.82	1856.0	1753.1
76.83	1841.0	1753.1
76.84	1820.0	1753.1
76.85	1848.0	1753.0
76.86	1866.0	1753.0
76.87	1897.0	1753.0
76.88	1863.0	1752.9
76.89	1876.0	1752.9
76.9	1838.0	1752.9
76.91	1868.0	1752.8
76.92	1844.0	1752.8
76.93	1843.0	1752.8
76.94	1806.0	1752.8
76.95	1857.0	1752.7
76.96	1860.0	1752.7
76.97	1843.0	1752.7
76.98	1815.0	1752.6
76.99	1798.0	1752.6
77.0	1852.0	1752.6
77.01	1889.0	1752.5
77.02	1868.0	1752.5
77.03	1857.0	1752.5
77.04	1896.0	1752.5
77.05	1911.0	1752.4
77.06	1887.0	1752.4
77.07	1866.0	1752.4
77.08	1826.0	1752.3
77.09	1834.0	1752.3
77.1	1815.0	1752.3
77.11	1826.0	1752.2
77.12	1782.0	1752.2
77.13	1835.0	1752.2
77.14	1824.0	1752.1
77.15	1849.0	1752.1
77.16	1859.0	1752.1
77.17	1873.0	1752.0
77.18	1826.0	1752.0
77.19	1796.0	1752.0
77.2	1810.0	1751.9
77.21	1861.0	1751.9
77.22	1852.0	1751.9
77.23	1824.0	1751.8
77.24	1794.0	1751.8
77.25	1865.0	1751.8
77.26	1809.0	1751.7
77.27	1811.0	1751.7
77.28	1776.0	1751.7
77.29	1841.0	1751.6
77.3	1860.0	1751.6
77.31	1822.0	1751.6
77.32	1833.0	1751.5
77.33	1823.0	1751.5
77.34	1834.0	1751.5
77.35	1886.0	1751.4
77.36	1863.0	1751.4
77.37	1880.0	1751.4
77.38	1844.0	1751.3
77.39	1851.0	1751.3
77.4	1859.0	1751.3
77.41	1873.0	1751.2
77.42	1887.0	1751.2
77.43	1876.0	1751.2
77.44	1887.0	1751.1
77.45	1902.0	1751.1
77.46	1895.0	1751.1
77.47	1866.0	1751.0
77.48	1869.0	1751.0
77.49	1879.0	1751.0
77.5	1886.0	1750.9
77.51	1871.0	1750.9
77.52	1885.0	1750.8
77.53	1893.0	1750.8
77.54	1874.0	1750.8
77.55	1867.0	1750.7
77.56	1882.0	1750.7
77.57	1867.0	1750.7
77.58	1894.0	1750.6
77.59	1838.0	1750.6
77.6	1808.0	1750.6
77.61	1864.0	1750.5
77.62	1901.0	1750.5
77.63	1932.0	1750.4
77.64	1910.0	1750.4
77.65	1829.0	1750.4
77.66	1810.0	1750.3
77.67	1843.0	1750.3
77.68	1922.0	1750.3
77.69	1880.0	1750.2
77.7	1898.0	1750.2
77.71	1900.0	1750.2
77.72	1927.0	1750.1
77.73	1887.0	1750.1
77.74	1912.0	1750.0
77.75	1925.0	1750.0
77.76	1926.0	1750.0
77.77	1910.0	1749.9
77.78	1859.0	1749.9
77.79	1891.0	1749.9
77.8	1910.0	1749.8
77.81	1919.0	1749.8
77.82	1925.0	1749.7
77.83	1851.0	1749.7
77.84	1850.0	1749.7
77.85	1861.0	1749.6
77.86	1877.0	1749.6
77.87	1896.0	1749.5
77.88	1916.0	1749.5
77.89	1915.0	1749.5
77.9	1929.0	1749.4
77.91	1937.0	1749.4
77.92	1912.0	1749.4
77.93	1897.0	1749.3
77.94	1899.0	1749.3
77.95	1904.0	1749.2
77.96	1883.0	1749.2
77.97	1930.0	1749.2
77.98	1893.0	1749.1
77.99	1855.0	1749.1
78.0	1878.0	1749.0
78.01	1893.0	1749.0
78.02	1902.0	1749.0
78.03	1868.0	1748.9
78.04	1909.0	1748.9
78.05	1978.0	1748.8
78.06	1966.0	1748.8
78.07	1899.0	1748.8
78.08	1943.0	1748.7
78.09	1947.0	1748.7
78.1	1905.0	1748.6
78.11	1953.0	1748.6
78.12	1930.0	1748.6
78.13	1949.0	1748.5
78.14	1935.0	1748.5
78.15	1900.0	1748.4
78.16	1924.0	1748.4
78.17	1940.0	1748.4
78.18	1925.0	1748.3
78.19	1932.0	1748.3
78.2	1930.0	1748.2
78.21	1949.0	1748.2
78.22	2000.0	1748.1
78.23	1968.0	1748.1
78.24	1966.0	1748.1
78.25	1938.0	1748.0
78.26	1929.0	1748.0
78.27	1953.0	1747.9
78.28	1912.0	1747.9
78.29	1877.0	1747.9
78.3	1880.0	1747.8
78.31	1894.0	1747.8
78.32	1922.0	1747.7
78.33	1922.0	1747.7
78.34	1903.0	1747.6
78.35	1890.0	1747.6
78.36	1922.0	1747.6
78.37	1908.0	1747.5
78.38	1911.0	1747.5
78.39	1966.0	1747.4
78.4	1976.0	1747.4
78.41	1896.0	1747.4
78.42	1923.0	1747.3
78.43	1957.0	1747.3
78.44	1971.0	1747.2
78.45	1951.0	1747.2
78.46	1944.0	1747.1
78.47	1955.0	1747.1
78.48	1905.0	1747.1
78.49	1919.0	1747.0
78.5	1980.0	1747.0
78.51	1980.0	1746.9
78.52	1969.0	1746.9
78.53	1971.0	1746.8
78.54	1967.0	1746.8
78.55	1980.0	1746.8
78.56	2028.0	1746.7
78.57	1981.0	1746.7
78.58	2008.0	1746.6
78.59	1985.0	1746.6
78.6	1972.0	1746.5
78.61	1930.0	1746.5
78.62	1994.0	1746.4
78.63	1979.0	1746.4
78.64	1937.0	1746.4
78.65	1987.0	1746.3
78.66	2008.0	1746.3
78.67	1953.0	1746.2
78.68	1937.0	1746.2
78.69	1937.0	1746.1
78.7	1962.0	1746.1
78.71	1948.0	1746.1
78.72	1958.0	1746.0
78.73	1968.0	1746.0
78.74	1974.0	1745.9
78.75	1961.0	1745.9
78.76	1997.0	1745.8
78.77	2039.0	1745.8
78.78	2000.0	1745.7
78.79	1954.0	1745.7
78.8	1891.0	1745.7
78.81	1915.0	1745.6
78.82	1969.0	1745.6
78.83	1962.0	1745.5
78.84	2046.0	1745.5
78.85	1976.0	1745.4
78.86	1974.0	1745.4
78.87	2004.0	1745.3
78.88	2002.0	1745.3
78.89	1964.0	1745.3
78.9	1924.0	1745.2
78.91	1954.0	1745.2
78.92	1987.0	1745.1
78.93	1991.0	1745.1
78.94	1959.0	1745.0
78.95	1947.0	1745.0
78.96	1928.0	1744.9
78.97	1949.0	1744.9
78.98	1926.0	1744.8
78.99	1922.0	1744.8
79.0	1967.0	1744.8
79.01	1966.0	1744.7
79.02	1981.0	1744.7
79.03	2004.0	1744.6
79.04	1973.0	1744.6
79.05	2042.0	1744.5
79.06	1998.0	1744.5
79.07	1929.0	1744.4
79.08	1971.0	1744.4
79.09	1931.0	1744.3
79.1	1944.0	1744.3
79.11	1938.0	1744.3
79.12	1878.0	1744.2
79.13	1900.0	1744.2
79.14	1942.0	1744.1
79.15	1907.0	1744.1
79.16	1941.0	1744.0
79.17	1930.0	1744.0
79.18	1883.0	1743.9
79.19	1991.0	1743.9
79.2	2003.0	1743.8
79.21	1979.0	1743.8
79.22	1946.0	1743.8
79.23	1968.0	1743.7
79.24	1986.0	1743.7
79.25	2025.0	1743.6
79.26	1975.0	1743.6
79.27	1920.0	1743.5
79.28	1911.0	1743.5
79.29	1953.0	1743.4
79.3	1943.0	1743.4
79.31	1894.0	1743.3
79.32	1867.0	1743.3
79.33	1899.0	1743.2
79.34	1930.0	1743.2
79.35	1931.0	1743.2
79.36	1970.0	1743.1
79.37	1985.0	1743.1
79.38	1945.0	1743.0
79.39	1923.0	1743.0
79.4	1937.0	1742.9
79.41	1941.0	1742.9
79.42	1981.0	1742.8
79.43	2009.0	1742.8
79.44	1932.0	1742.7
79.45	1905.0	1742.7
79.46	1883.0	1742.6
79.47	1889.0	1742.6
79.48	1924.0	1742.5
79.49	1933.0	1742.5
79.5	1912.0	1742.5
79.51	1938.0	1742.4
79.52	1959.0	1742.4
79.53	1937.0	1742.3
79.54	1921.0	1742.3
79.55	1959.0	1742.2
79.56	1976.0	1742.2
79.57	1977.0	1742.1
79.58	1968.0	1742.1
79.59	1943.0	1742.0
79.6	1889.0	1742.0
79.61	1862.0	1741.9
79.62	1867.0	1741.9
79.63	1898.0	1741.8
79.64	1915.0	1741.8
79.65	1933.0	1741.7
79.66	2002.0	1741.7
79.67	1927.0	1741.7
79.68	1919.0	1741.6
79.69	1928.0	1741.6
79.7	1923.0	1741.5
79.71	1867.0	1741.5
79.72	1903.0	1741.4
79.73	1931.0	1741.4
79.74	1963.0	1741.3
79.75	1941.0	1741.3
79.76	1943.0	1741.2
79.77	1956.0	1741.2
79.78	1937.0	1741.1
79.79	1973.0	1741.1
79.8	1992.0	1741.0
79.81	1949.0	1741.0
79.82	1918.0	1740.9
79.83	1978.0	1740.9
79.84	1959.0	1740.8
79.85	1917.0	1740.8
79.86	1932.0	1740.8
79.87	1967.0	1740.7
79.88	1934.0	1740.7
79.89	1912.0	1740.6
79.9	1956.0	1740.6
79.91	1957.0	1740.5
79.92	1963.0	1740.5
79.93	1984.0	1740.4
79.94	1982.0	1740.4
79.95	1963.0	1740.3
79.96	1983.0	1740.3
79.97	1980.0	1740.2
79.98	1963.0	1740.2
79.99	1963.0	1740.1
80.0	1958.0	1740.1
80.01	1947.0	1740.0
80.02	1893.0	1740.0
80.03	1885.0	1739.9
80.04	1980.0	1739.9
80.05	2011.0	1739.8
80.06	1975.0	1739.8
80.07	2009.0	1739.8
80.08	2042.0	1739.7
80.09	1950.0	1739.7
80.1	1934.0	1739.6
80.11	1975.0	1739.6
80.12	1968.0	1739.5
80.13	1979.0	1739.5
80.14	1971.0	1739.4
80.15	1930.0	1739.4
80.16	1943.0	1739.3
80.17	1968.0	1739.3
80.18	1970.0	1739.2
80.19	1956.0	1739.2
80.2	1939.0	1739.1
80.21	1933.0	1739.1
80.22	1983.0	1739.0
80.23	2005.0	1739.0
80.24	1951.0	1738.9
80.25	2018.0	1738.9
80.26	2022.0	1738.8
80.27	1979.0	1738.8
80.28	1980.0	1738.8
80.29	1957.0	1738.7
80.3	1956.0	1738.7
80.31	1893.0	1738.6
80.32	1917.0	1738.6
80.33	1922.0	1738.5
80.34	1932.0	1738.5
80.35	1973.0	1738.4
80.36	1994.0	1738.4
80.37	1984.0	1738.3
80.38	1981.0	1738.3
80.39	1971.0	1738.2
80.4	1938.0	1738.2
80.41	1921.0	1738.1
80.42	1948.0	1738.1
80.43	1987.0	1738.0
80.44	1990.0	1738.0
80.45	1913.0	1737.9
80.46	1897.0	1737.9
80.47	1924.0	1737.9
80.48	1956.0	1737.8
80.49	1945.0	1737.8
80.5	1953.0	1737.7
80.51	1953.0	1737.7
80.52	1914.0	1737.6
80.53	1915.0	1737.6
80.54	1919.0	1737.5
80.55	1894.0	1737.5
80.56	1930.0	1737.4
80.57	1935.0	1737.4
80.58	1890.0	1737.3
80.59	1893.0	1737.3
80.6	1903.0	1737.2
80.61	1871.0	1737.2
80.62	1876.0	1737.1
80.63	1882.0	1737.1
80.64	1898.0	1737.0
80.65	1902.0	1737.0
80.66	1873.0	1737.0
80.67	1914.0	1736.9
80.68	1960.0	1736.9
80.69	1928.0	1736.8
80.7	1919.0	1736.8
80.71	1934.0	1736.7
80.72	1898.0	1736.7
80.73	1960.0	1736.6
80.74	1913.0	1736.6
80.75	1859.0	1736.5
80.76	1875.0	1736.5
80.77	1879.0	1736.4
80.78	1896.0	1736.4
80.79	1911.0	1736.3
80.8	1880.0	1736.3
80.81	1820.0	1736.2
80.82	1834.0	1736.2
80.83	1868.0	1736.2
80.84	1885.0	1736.1
80.85	1862.0	1736.1
80.86	1834.0	1736.0
80.87	1850.0	1736.0
80.88	1837.0	1735.9
80.89	1859.0	1735.9
80.9	1850.0	1735.8
80.91	1850.0	1735.8
80.92	1833.0	1735.7
80.93	1839.0	1735.7
80.94	1857.0	1735.6
80.95	1929.0	1735.6
80.96	1904.0	1735.5
80.97	1877.0	1735.5
80.98	1853.0	1735.5
80.99	1789.0	1735.4
81.0	1807.0	1735.4
81.01	1815.0	1735.3
81.02	1815.0	1735.3
81.03	1814.0	1735.2
81.04	1826.0	1735.2
81.05	1854.0	1735.1
81.06	1864.0	1735.1
81.07	1866.0	1735.0
81.08	1846.0	1735.0
81.09	1850.0	1734.9
81.1	1835.0	1734.9
81.11	1824.0	1734.9
81.12	1785.0	1734.8
81.13	1795.0	1734.8
81.14	1850.0	1734.7
81.15	1815.0	1734.7
81.16	1800.0	1734.6
81.17	1802.0	1734.6
81.18	1821.0	1734.5
81.19	1822.0	1734.5
81.2	1778.0	1734.4
81.21	1745.0	1734.4
81.22	1795.0	1734.3
81.23	1822.0	1734.3
81.24	1855.0	1734.3
81.25	1837.0	1734.2
81.26	1837.0	1734.2
81.27	1832.0	1734.1
81.28	1815.0	1734.1
81.29	1801.0	1734.0
81.3	1814.0	1734.0
81.31	1817.0	1733.9
81.32	1816.0	1733.9
81.33	1812.0	1733.8
81.34	1833.0	1733.8
81.35	1846.0	1733.8
81.36	1873.0	1733.7
81.37	1871.0	1733.7
81.38	1849.0	1733.6
81.39	1803.0	1733.6
81.4	1827.0	1733.5
81.41	1817.0	1733.5
81.42	1739.0	1733.4
81.43	1767.0	1733.4
81.44	1801.0	1733.4
81.45	1825.0	1733.3
81.46	1776.0	1733.3
81.47	1812.0	1733.2
81.48	1795.0	1733.2
81.49	1819.0	1733.1
81.5	1821.0	1733.1
81.51	1773.0	1733.0
81.52	1774.0	1733.0
81.53	1784.0	1733.0
81.54	1816.0	1732.9
81.55	1847.0	1732.9
81.56	1803.0	1732.8
81.57	1766.0	1732.8
81.58	1826.0	1732.7
81.59	1788.0	1732.7
81.6	1757.0	1732.6
81.61	1774.0	1732.6
81.62	1776.0	1732.6
81.63	1768.0	1732.5
81.64	1821.0	1732.5
81.65	1797.0	1732.4
81.66	1789.0	1732.4
81.67	1803.0	1732.3
81.68	1821.0	1732.3
81.69	1847.0	1732.2
81.7	1820.0	1732.2
81.71	1785.0	1732.2
81.72	1778.0	1732.1
81.73	1762.0	1732.1
81.74	1756.0	1732.0
81.75	1825.0	1732.0
81.76	1848.0	1731.9
81.77	1796.0	1731.9
81.78	1794.0	1731.9
81.79	1802.0	1731.8
81.8	1805.0	1731.8
81.81	1787.0	1731.7
81.82	1773.0	1731.7
81.83	1768.0	1731.6
81.84	1769.0	1731.6
81.85	1757.0	1731.6
81.86	1762.0	1731.5
81.87	1853.0	1731.5
81.88	1868.0	1731.4
81.89	1802.0	1731.4
81.9	1785.0	1731.3
81.91	1769.0	1731.3
81.92	1756.0	1731.3
81.93	1765.0	1731.2
81.94	1776.0	1731.2
81.95	1795.0	1731.1
81.96	1800.0	1731.1
81.97	1754.0	1731.1
81.98	1748.0	1731.0
81.99	1759.0	1731.0
82.0	1821.0	1730.9
82.01	1794.0	1730.9
82.02	1844.0	1730.8
82.03	1770.0	1730.8
82.04	1770.0	1730.8
82.05	1781.0	1730.7
82.06	1778.0	1730.7
82.07	1762.0	1730.6
82.08	1779.0	1730.6
82.09	1796.0	1730.6
82.1	1751.0	1730.5
82.11	1796.0	1730.5
82.12	1840.0	1730.4
82.13	1805.0	1730.4
82.14	1806.0	1730.3
82.15	1858.0	1730.3
82.16	1750.0	1730.3
82.17	1785.0	1730.2
82.18	1792.0	1730.2
82.19	1761.0	1730.1
82.2	1755.0	1730.1
82.21	1779.0	1730.1
82.22	1840.0	1730.0
82.23	1760.0	1730.0
82.24	1771.0	1729.9
82.25	1778.0	1729.9
82.26	1779.0	1729.9
82.27	1780.0	1729.8
82.28	1757.0	1729.8
82.29	1751.0	1729.7
82.3	1754.0	1729.7
82.31	1789.0	1729.7
82.32	1764.0	1729.6
82.33	1780.0	1729.6
82.34	1774.0	1729.5
82.35	1810.0	1729.5
82.36	1816.0	1729.5
82.37	1739.0	1729.4
82.38	1740.0	1729.4
82.39	1719.0	1729.3
82.4	1745.0	1729.3
82.41	1787.0	1729.3
82.42	1788.0	1729.2
82.43	1747.0	1729.2
82.44	1738.0	1729.2
82.45	1742.0	1729.1
82.46	1776.0	1729.1
82.47	1782.0	1729.0
82.48	1762.0	1729.0
82.49	1782.0	1729.0
82.5	1760.0	1728.9
82.51	1788.0	1728.9
82.52	1761.0	1728.8
82.53	1718.0	1728.8
82.54	1764.0	1728.8
82.55	1778.0	1728.7
82.56	1776.0	1728.7
82.57	1756.0	1728.7
82.58	1771.0	1728.6
82.59	1774.0	1728.6
82.6	1730.0	1728.5
82.61	1755.0	1728.5
82.62	1782.0	1728.5
82.63	1796.0	1728.4
82.64	1756.0	1728.4
82.65	1756.0	1728.4
82.66	1769.0	1728.3
82.67	1809.0	1728.3
82.68	1774.0	1728.2
82.69	1796.0	1728.2
82.7	1797.0	1728.2
82.71	1803.0	1728.1
82.72	1802.0	1728.1
82.73	1774.0	1728.1
82.74	1755.0	1728.0
82.75	1788.0	1728.0
82.76	1761.0	1728.0
82.77	1750.0	1727.9
82.78	1715.0	1727.9
82.79	1728.0	1727.9
82.8	1730.0	1727.8
82.81	1746.0	1727.8
82.82	1777.0	1727.7
82.83	1699.0	1727.7
82.84	1729.0	1727.7
82.85	1769.0	1727.6
82.86	1789.0	1727.6
82.87	1796.0	1727.6
82.88	1766.0	1727.5
82.89	1759.0	1727.5
82.9	1726.0	1727.5
82.91	1721.0	1727.4
82.92	1750.0	1727.4
82.93	1759.0	1727.4
82.94	1727.0	1727.3
82.95	1758.0	1727.3
82.96	1777.0	1727.3
82.97	1771.0	1727.2
82.98	1759.0	1727.2
82.99	1724.0	1727.2
83.0	1726.0	1727.1
83.01	1733.0	1727.1
83.02	1773.0	1727.1
83.03	1800.0	1727.0
83.04	1770.0	1727.0
83.05	1739.0	1727.0
83.06	1761.0	1726.9
83.07	1749.0	1726.9
83.08	1752.0	1726.9
83.09	1747.0	1726.8
83.1	1762.0	1726.8
83.11	1768.0	1726.8
83.12	1784.0	1726.7
83.13	1812.0	1726.7
83.14	1790.0	1726.7
83.15	1748.0	1726.6
83.16	1786.0	1726.6
83.17	1787.0	1726.6
83.18	1765.0	1726.5
83.19	1801.0	1726.5
83.2	1764.0	1726.5
83.21	1766.0	1726.4
83.22	1744.0	1726.4
83.23	1729.0	1726.4
83.24	1728.0	1726.3
83.25	1765.0	1726.3
83.26	1761.0	1726.3
83.27	1779.0	1726.2
83.28	1763.0	1726.2
83.29	1744.0	1726.2
83.3	1796.0	1726.1
83.31	1758.0	1726.1
83.32	1764.0	1726.1
83.33	1764.0	1726.0
83.34	1769.0	1726.0
83.35	1772.0	1726.0
83.36	1768.0	1726.0
83.37	1773.0	1725.9
83.38	1775.0	1725.9
83.39	1770.0	1725.9
83.4	1764.0	1725.8
83.41	1784.0	1725.8
83.42	1745.0	1725.8
83.43	1760.0	1725.7
83.44	1811.0	1725.7
83.45	1811.0	1725.7
83.46	1774.0	1725.6
83.47	1730.0	1725.6
83.48	1709.0	1725.6
83.49	1770.0	1725.6
83.5	1764.0	1725.5
83.51	1743.0	1725.5
83.52	1803.0	1725.5
83.53	1823.0	1725.4
83.54	1799.0	1725.4
83.55	1767.0	1725.4
83.56	1761.0	1725.4
83.57	1770.0	1725.3
83.58	1731.0	1725.3
83.59	1765.0	1725.3
83.6	1824.0	1725.2
83.61	1781.0	1725.2
83.62	1741.0	1725.2
83.63	1811.0	1725.1
83.64	1797.0	1725.1
83.65	1753.0	1725.1
83.66	1754.0	1725.1
83.67	1745.0	1725.0
83.68	1745.0	1725.0
83.69	1825.0	1725.0
83.7	1795.0	1724.9
83.71	1771.0	1724.9
83.72	1762.0	1724.9
83.73	1752.0	1724.9
83.74	1809.0	1724.8
83.75	1802.0	1724.8
83.76	1773.0	1724.8
83.77	1760.0	1724.7
83.78	1746.0	1724.7
83.79	1754.0	1724.7
83.8	1781.0	1724.7
83.81	1794.0	1724.6
83.82	1776.0	1724.6
83.83	1775.0	1724.6
83.84	1732.0	1724.6
83.85	1779.0	1724.5
83.86	1759.0	1724.5
83.87	1801.0	1724.5
83.88	1769.0	1724.4
83.89	1801.0	1724.4
83.9	1769.0	1724.4
83.91	1745.0	1724.4
83.92	1768.0	1724.3
83.93	1770.0	1724.3
83.94	1754.0	1724.3
83.95	1759.0	1724.3
83.96	1767.0	1724.2
83.97	1784.0	1724.2
83.98	1793.0	1724.2
83.99	1752.0	1724.1
84.0	1756.0	1724.1
84.01	1785.0	1724.1
84.02	1774.0	1724.1
84.03	1782.0	1724.0
84.04	1810.0	1724.0
84.05	1788.0	1724.0
84.06	1747.0	1724.0
84.07	1799.0	1723.9
84.08	1768.0	1723.9
84.09	1780.0	1723.9
84.1	1843.0	1723.9
84.11	1777.0	1723.8
84.12	1814.0	1723.8
84.13	1801.0	1723.8
84.14	1773.0	1723.8
84.15	1774.0	1723.7
84.16	1764.0	1723.7
84.17	1729.0	1723.7
84.18	1734.0	1723.7
84.19	1783.0	1723.6
84.2	1802.0	1723.6
84.21	1782.0	1723.6
84.22	1750.0	1723.6
84.23	1751.0	1723.5
84.24	1763.0	1723.5
84.25	1756.0	1723.5
84.26	1789.0	1723.5
84.27	1788.0	1723.4
84.28	1822.0	1723.4
84.29	1820.0	1723.4
84.3	1782.0	1723.4
84.31	1817.0	1723.3
84.32	1817.0	1723.3
84.33	1789.0	1723.3
84.34	1773.0	1723.3
84.35	1743.0	1723.2
84.36	1749.0	1723.2
84.37	1750.0	1723.2
84.38	1782.0	1723.2
84.39	1790.0	1723.1
84.4	1769.0	1723.1
84.41	1775.0	1723.1
84.42	1784.0	1723.1
84.43	1774.0	1723.0
84.44	1774.0	1723.0
84.45	1770.0	1723.0
84.46	1822.0	1723.0
84.47	1794.0	1722.9
84.48	1749.0	1722.9
84.49	1790.0	1722.9
84.5	1781.0	1722.9
84.51	1787.0	1722.8
84.52	1859.0	1722.8
84.53	1796.0	1722.8
84.54	1790.0	1722.8
84.55	1776.0	1722.8
84.56	1770.0	1722.7
84.57	1755.0	1722.7
84.58	1800.0	1722.7
84.59	1828.0	1722.7
84.6	1778.0	1722.6
84.61	1800.0	1722.6
84.62	1822.0	1722.6
84.63	1831.0	1722.6
84.64	1818.0	1722.5
84.65	1795.0	1722.5
84.66	1739.0	1722.5
84.67	1755.0	1722.5
84.68	1764.0	1722.5
84.69	1797.0	1722.4
84.7	1775.0	1722.4
84.71	1798.0	1722.4
84.72	1807.0	1722.4
84.73	1764.0	1722.3
84.74	1747.0	1722.3
84.75	1773.0	1722.3
84.76	1733.0	1722.3
84.77	1771.0	1722.3
84.78	1783.0	1722.2
84.79	1762.0	1722.2
84.8	1755.0	1722.2
84.81	1741.0	1722.2
84.82	1744.0	1722.1
84.83	1779.0	1722.1
84.84	1813.0	1722.1
84.85	1778.0	1722.1
84.86	1756.0	1722.1
84.87	1781.0	1722.0
84.88	1760.0	1722.0
84.89	1830.0	1722.0
84.9	1844.0	1722.0
84.91	1803.0	1721.9
84.92	1791.0	1721.9
84.93	1802.0	1721.9
84.94	1786.0	1721.9
84.95	1759.0	1721.9
84.96	1758.0	1721.8
84.97	1765.0	1721.8
84.98	1761.0	1721.8
84.99	1800.0	1721.8
85.0	1797.0	1721.8
85.01	1775.0	1721.7
85.02	1830.0	1721.7
85.03	1823.0	1721.7
85.04	1774.0	1721.7
85.05	1756.0	1721.6
85.06	1743.0	1721.6
85.07	1754.0	1721.6
85.08	1772.0	1721.6
85.09	1792.0	1721.6
85.1	1770.0	1721.5
85.11	1770.0	1721.5
85.12	1790.0	1721.5
85.13	1795.0	1721.5
85.14	1771.0	1721.5
85.15	1803.0	1721.4
85.16	1797.0	1721.4
85.17	1769.0	1721.4
85.18	1797.0	1721.4
85.19	1743.0	1721.4
85.2	1777.0	1721.3
85.21	1812.0	1721.3
85.22	1788.0	1721.3
85.23	1791.0	1721.3
85.24	1820.0	1721.3
85.25	1779.0	1721.2
85.26	1771.0	1721.2
85.27	1814.0	1721.2
85.28	1830.0	1721.2
85.29	1790.0	1721.1
85.3	1757.0	1721.1
85.31	1764.0	1721.1
85.32	1745.0	1721.1
85.33	1765.0	1721.1
85.34	1814.0	1721.0
85.35	1783.0	1721.0
85.36	1798.0	1721.0
85.37	1781.0	1721.0
85.38	1766.0	1721.0
85.39	1796.0	1720.9
85.4	1808.0	1720.9
85.41	1767.0	1720.9
85.42	1775.0	1720.9
85.43	1755.0	1720.9
85.44	1777.0	1720.9
85.45	1802.0	1720.8
85.46	1759.0	1720.8
85.47	1753.0	1720.8
85.48	1750.0	1720.8
85.49	1774.0	1720.8
85.5	1827.0	1720.7
85.51	1845.0	1720.7
85.52	1826.0	1720.7
85.53	1774.0	1720.7
85.54	1744.0	1720.7
85.55	1743.0	1720.6
85.56	1734.0	1720.6
85.57	1731.0	1720.6
85.58	1781.0	1720.6
85.59	1770.0	1720.6
85.6	1751.0	1720.5
85.61	1746.0	1720.5
85.62	1752.0	1720.5
85.63	1736.0	1720.5
85.64	1748.0	1720.5
85.65	1780.0	1720.4
85.66	1776.0	1720.4
85.67	1778.0	1720.4
85.68	1781.0	1720.4
85.69	1786.0	1720.4
85.7	1785.0	1720.3
85.71	1818.0	1720.3
85.72	1787.0	1720.3
85.73	1744.0	1720.3
85.74	1773.0	1720.3
85.75	1795.0	1720.3
85.76	1803.0	1720.2
85.77	1797.0	1720.2
85.78	1749.0	1720.2
85.79	1788.0	1720.2
85.8	1776.0	1720.2
85.81	1777.0	1720.1
85.82	1802.0	1720.1
85.83	1780.0	1720.1
85.84	1777.0	1720.1
85.85	1805.0	1720.1
85.86	1803.0	1720.0
85.87	1772.0	1720.0
85.88	1763.0	1720.0
85.89	1803.0	1720.0
85.9	1827.0	1720.0
85.91	1820.0	1720.0
85.92	1801.0	1719.9
85.93	1813.0	1719.9
85.94	1810.0	1719.9
85.95	1785.0	1719.9
85.96	1752.0	1719.9
85.97	1802.0	1719.8
85.98	1799.0	1719.8
85.99	1768.0	1719.8
86.0	1754.0	1719.8
86.01	1808.0	1719.8
86.02	1762.0	1719.8
86.03	1811.0	1719.7
86.04	1846.0	1719.7
86.05	1809.0	1719.7
86.06	1777.0	1719.7
86.07	1740.0	1719.7
86.08	1752.0	1719.6
86.09	1747.0	1719.6
86.1	1735.0	1719.6
86.11	1732.0	1719.6
86.12	1723.0	1719.6
86.13	1728.0	1719.6
86.14	1745.0	1719.5
86.15	1759.0	1719.5
86.16	1766.0	1719.5
86.17	1772.0	1719.5
86.18	1797.0	1719.5
86.19	1799.0	1719.4
86.2	1740.0	1719.4
86.21	1750.0	1719.4
86.22	1799.0	1719.4
86.23	1823.0	1719.4
86.24	1799.0	1719.4
86.25	1762.0	1719.3
86.26	1756.0	1719.3
86.27	1745.0	1719.3
86.28	1776.0	1719.3
86.29	1810.0	1719.3
86.3	1796.0	1719.2
86.31	1751.0	1719.2
86.32	1734.0	1719.2
86.33	1774.0	1719.2
86.34	1776.0	1719.2
86.35	1750.0	1719.2
86.36	1756.0	1719.1
86.37	1748.0	1719.1
86.38	1774.0	1719.1
86.39	1844.0	1719.1
86.4	1805.0	1719.1
86.41	1806.0	1719.1
86.42	1825.0	1719.0
86.43	1790.0	1719.0
86.44	1803.0	1719.0
86.45	1790.0	1719.0
86.46	1764.0	1719.0
86.47	1790.0	1718.9
86.48	1753.0	1718.9
86.49	1733.0	1718.9
86.5	1766.0	1718.9
86.51	1772.0	1718.9
86.52	1757.0	1718.9
86.53	1760.0	1718.8
86.54	1772.0	1718.8
86.55	1808.0	1718.8
86.56	1795.0	1718.8
86.57	1781.0	1718.8
86.58	1765.0	1718.8
86.59	1740.0	1718.7
86.6	1752.0	1718.7
86.61	1747.0	1718.7
86.62	1725.0	1718.7
86.63	1745.0	1718.7
86.64	1758.0	1718.6
86.65	1787.0	1718.6
86.66	1790.0	1718.6
86.67	1773.0	1718.6
86.68	1746.0	1718.6
86.69	1777.0	1718.6
86.7	1786.0	1718.5
86.71	1769.0	1718.5
86.72	1771.0	1718.5
86.73	1775.0	1718.5
86.74	1786.0	1718.5
86.75	1812.0	1718.5
86.76	1831.0	1718.4
86.77	1843.0	1718.4
86.78	1774.0	1718.4
86.79	1766.0	1718.4
86.8	1761.0	1718.4
86.81	1762.0	1718.4
86.82	1780.0	1718.3
86.83	1794.0	1718.3
86.84	1757.0	1718.3
86.85	1727.0	1718.3
86.86	1716.0	1718.3
86.87	1729.0	1718.2
86.88	1736.0	1718.2
86.89	1724.0	1718.2
86.9	1735.0	1718.2
86.91	1782.0	1718.2
86.92	1801.0	1718.2
86.93	1782.0	1718.1
86.94	1771.0	1718.1
86.95	1759.0	1718.1
86.96	1772.0	1718.1
86.97	1777.0	1718.1
86.98	1769.0	1718.1
86.99	1759.0	1718.0
87.0	1777.0	1718.0
87.01	1774.0	1718.0
87.02	1770.0	1718.0
87.03	1757.0	1718.0
87.04	1794.0	1717.9
87.05	1793.0	1717.9
87.06	1798.0	1717.9
87.07	1800.0	1717.9
87.08	1778.0	1717.9
87.09	1774.0	1717.9
87.1	1811.0	1717.8
87.11	1777.0	1717.8
87.12	1759.0	1717.8
87.13	1770.0	1717.8
87.14	1775.0	1717.8
87.15	1772.0	1717.8
87.16	1761.0	1717.7
87.17	1756.0	1717.7
87.18	1792.0	1717.7
87.19	1786.0	1717.7
87.2	1767.0	1717.7
87.21	1766.0	1717.6
87.22	1789.0	1717.6
87.23	1836.0	1717.6
87.24	1820.0	1717.6
87.25	1801.0	1717.6
87.26	1810.0	1717.6
87.27	1763.0	1717.5
87.28	1771.0	1717.5
87.29	1760.0	1717.5
87.3	1775.0	1717.5
87.31	1797.0	1717.5
87.32	1780.0	1717.5
87.33	1749.0	1717.4
87.34	1726.0	1717.4
87.35	1719.0	1717.4
87.36	1760.0	1717.4
87.37	1758.0	1717.4
87.38	1765.0	1717.3
87.39	1791.0	1717.3
87.4	1768.0	1717.3
87.41	1769.0	1717.3
87.42	1771.0	1717.3
87.43	1776.0	1717.3
87.44	1763.0	1717.2
87.45	1785.0	1717.2
87.46	1751.0	1717.2
87.47	1737.0	1717.2
87.48	1707.0	1717.2
87.49	1750.0	1717.2
87.5	1762.0	1717.1
87.51	1778.0	1717.1
87.52	1784.0	1717.1
87.53	1802.0	1717.1
87.54	1787.0	1717.1
87.55	1767.0	1717.0
87.56	1783.0	1717.0
87.57	1792.0	1717.0
87.58	1797.0	1717.0
87.59	1781.0	1717.0
87.6	1772.0	1717.0
87.61	1774.0	1716.9
87.62	1740.0	1716.9
87.63	1744.0	1716.9
87.64	1739.0	1716.9
87.65	1747.0	1716.9
87.66	1717.0	1716.8
87.67	1755.0	1716.8
87.68	1783.0	1716.8
87.69	1769.0	1716.8
87.7	1749.0	1716.8
87.71	1769.0	1716.8
87.72	1781.0	1716.7
87.73	1780.0	1716.7
87.74	1802.0	1716.7
87.75	1819.0	1716.7
87.76	1795.0	1716.7
87.77	1768.0	1716.6
87.78	1760.0	1716.6
87.79	1785.0	1716.6
87.8	1774.0	1716.6
87.81	1757.0	1716.6
87.82	1789.0	1716.6
87.83	1798.0	1716.5
87.84	1760.0	1716.5
87.85	1753.0	1716.5
87.86	1773.0	1716.5
87.87	1771.0	1716.5
87.88	1773.0	1716.4
87.89	1748.0	1716.4
87.9	1748.0	1716.4
87.91	1789.0	1716.4
87.92	1828.0	1716.4
87.93	1806.0	1716.3
87.94	1794.0	1716.3
87.95	1774.0	1716.3
87.96	1795.0	1716.3
87.97	1794.0	1716.3
87.98	1744.0	1716.3
87.99	1707.0	1716.2
88.0	1747.0	1716.2
88.01	1771.0	1716.2
88.02	1782.0	1716.2
88.03	1755.0	1716.2
88.04	1749.0	1716.1
88.05	1725.0	1716.1
88.06	1731.0	1716.1
88.07	1756.0	1716.1
88.08	1765.0	1716.1
88.09	1774.0	1716.0
88.1	1789.0	1716.0
88.11	1820.0	1716.0
88.12	1812.0	1716.0
88.13	1775.0	1716.0
88.14	1776.0	1715.9
88.15	1788.0	1715.9
88.16	1812.0	1715.9
88.17	1786.0	1715.9
88.18	1768.0	1715.9
88.19	1766.0	1715.9
88.2	1783.0	1715.8
88.21	1805.0	1715.8
88.22	1758.0	1715.8
88.23	1757.0	1715.8
88.24	1820.0	1715.8
88.25	1815.0	1715.7
88.26	1816.0	1715.7
88.27	1790.0	1715.7
88.28	1731.0	1715.7
88.29	1695.0	1715.7
88.3	1755.0	1715.6
88.31	1763.0	1715.6
88.32	1776.0	1715.6
88.33	1797.0	1715.6
88.34	1748.0	1715.6
88.35	1708.0	1715.5
88.36	1717.0	1715.5
88.37	1742.0	1715.5
88.38	1740.0	1715.5
88.39	1782.0	1715.5
88.4	1798.0	1715.4
88.41	1770.0	1715.4
88.42	1756.0	1715.4
88.43	1759.0	1715.4
88.44	1752.0	1715.4
88.45	1753.0	1715.3
88.46	1775.0	1715.3
88.47	1780.0	1715.3
88.48	1813.0	1715.3
88.49	1768.0	1715.3
88.5	1724.0	1715.2
88.51	1716.0	1715.2
88.52	1741.0	1715.2
88.53	1739.0	1715.2
88.54	1755.0	1715.2
88.55	1776.0	1715.1
88.56	1765.0	1715.1
88.57	1757.0	1715.1
88.58	1771.0	1715.1
88.59	1777.0	1715.0
88.6	1782.0	1715.0
88.61	1780.0	1715.0
88.62	1787.0	1715.0
88.63	1788.0	1715.0
88.64	1775.0	1714.9
88.65	1768.0	1714.9
88.66	1784.0	1714.9
88.67	1794.0	1714.9
88.68	1747.0	1714.9
88.69	1705.0	1714.8
88.7	1728.0	1714.8
88.71	1731.0	1714.8
88.72	1715.0	1714.8
88.73	1739.0	1714.8
88.74	1764.0	1714.7
88.75	1756.0	1714.7
88.76	1738.0	1714.7
88.77	1753.0	1714.7
88.78	1771.0	1714.6
88.79	1756.0	1714.6
88.8	1758.0	1714.6
88.81	1752.0	1714.6
88.82	1733.0	1714.6
88.83	1743.0	1714.5
88.84	1742.0	1714.5
88.85	1763.0	1714.5
88.86	1800.0	1714.5
88.87	1813.0	1714.4
88.88	1754.0	1714.4
88.89	1695.0	1714.4
88.9	1765.0	1714.4
88.91	1778.0	1714.4
88.92	1726.0	1714.3
88.93	1729.0	1714.3
88.94	1728.0	1714.3
88.95	1745.0	1714.3
88.96	1740.0	1714.2
88.97	1742.0	1714.2
88.98	1748.0	1714.2
88.99	1780.0	1714.2
89.0	1768.0	1714.2
89.01	1807.0	1714.1
89.02	1805.0	1714.1
89.03	1761.0	1714.1
89.04	1715.0	1714.1
89.05	1710.0	1714.0
89.06	1738.0	1714.0
89.07	1760.0	1714.0
89.08	1756.0	1714.0
89.09	1736.0	1714.0
89.1	1730.0	1713.9
89.11	1731.0	1713.9
89.12	1747.0	1713.9
89.13	1703.0	1713.9
89.14	1707.0	1713.8
89.15	1734.0	1713.8
89.16	1775.0	1713.8
89.17	1792.0	1713.8
89.18	1757.0	1713.7
89.19	1737.0	1713.7
89.2	1736.0	1713.7
89.21	1737.0	1713.7
89.22	1772.0	1713.7
89.23	1768.0	1713.6
89.24	1747.0	1713.6
89.25	1760.0	1713.6
89.26	1748.0	1713.6
89.27	1744.0	1713.5
89.28	1754.0	1713.5
89.29	1738.0	1713.5
89.3	1730.0	1713.5
89.31	1749.0	1713.4
89.32	1761.0	1713.4
89.33	1770.0	1713.4
89.34	1763.0	1713.4
89.35	1723.0	1713.3
89.36	1732.0	1713.3
89.37	1754.0	1713.3
89.38	1768.0	1713.3
89.39	1768.0	1713.2
89.4	1743.0	1713.2
89.41	1733.0	1713.2
89.42	1738.0	1713.2
89.43	1710.0	1713.1
89.44	1731.0	1713.1
89.45	1754.0	1713.1
89.46	1784.0	1713.1
89.47	1768.0	1713.0
89.48	1732.0	1713.0
89.49	1737.0	1713.0
89.5	1776.0	1713.0
89.51	1771.0	1712.9
89.52	1766.0	1712.9
89.53	1763.0	1712.9
89.54	1757.0	1712.9
89.55	1757.0	1712.8
89.56	1730.0	1712.8
89.57	1710.0	1712.8
89.58	1753.0	1712.8
89.59	1780.0	1712.7
89.6	1783.0	1712.7
89.61	1757.0	1712.7
89.62	1756.0	1712.7
89.63	1779.0	1712.6
89.64	1807.0	1712.6
89.65	1796.0	1712.6
89.66	1764.0	1712.6
89.67	1767.0	1712.5
89.68	1773.0	1712.5
89.69	1752.0	1712.5
89.7	1745.0	1712.5
89.71	1749.0	1712.4
89.72	1775.0	1712.4
89.73	1796.0	1712.4
89.74	1762.0	1712.3
89.75	1753.0	1712.3
89.76	1718.0	1712.3
89.77	1712.0	1712.3
89.78	1748.0	1712.2
89.79	1735.0	1712.2
89.8	1763.0	1712.2
89.81	1761.0	1712.2
89.82	1723.0	1712.1
89.83	1716.0	1712.1
89.84	1727.0	1712.1
89.85	1724.0	1712.1
89.86	1738.0	1712.0
89.87	1780.0	1712.0
89.88	1796.0	1712.0
89.89	1788.0	1711.9
89.9	1757.0	1711.9
89.91	1761.0	1711.9
89.92	1787.0	1711.9
89.93	1758.0	1711.8
89.94	1731.0	1711.8
89.95	1766.0	1711.8
89.96	1780.0	1711.7
89.97	1801.0	1711.7
89.98	1788.0	1711.7
89.99	1769.0	1711.7
90.0	1767.0	1711.6
90.01	1722.0	1711.6
90.02	1710.0	1711.6
90.03	1732.0	1711.5
90.04	1726.0	1711.5
90.05	1722.0	1711.5
90.06	1736.0	1711.5
90.07	1768.0	1711.4
90.08	1786.0	1711.4
90.09	1775.0	1711.4
90.1	1743.0	1711.3
90.11	1707.0	1711.3
90.12	1688.0	1711.3
90.13	1714.0	1711.3
90.14	1749.0	1711.2
90.15	1752.0	1711.2
90.16	1757.0	1711.2
90.17	1747.0	1711.1
90.18	1715.0	1711.1
90.19	1712.0	1711.1
90.2	1748.0	1711.1
90.21	1772.0	1711.0
90.22	1775.0	1711.0
90.23	1786.0	1711.0
90.24	1764.0	1710.9
90.25	1730.0	1710.9
90.26	1730.0	1710.9
90.27	1714.0	1710.8
90.28	1717.0	1710.8
90.29	1772.0	1710.8
90.3	1812.0	1710.8
90.31	1807.0	1710.7
90.32	1785.0	1710.7
90.33	1771.0	1710.7
90.34	1737.0	1710.6
90.35	1726.0	1710.6
90.36	1739.0	1710.6
90.37	1731.0	1710.5
90.38	1714.0	1710.5
90.39	1705.0	1710.5
90.4	1757.0	1710.4
90.41	1761.0	1710.4
90.42	1714.0	1710.4
90.43	1713.0	1710.4
90.44	1694.0	1710.3
90.45	1693.0	1710.3
90.46	1763.0	1710.3
90.47	1775.0	1710.2
90.48	1751.0	1710.2
90.49	1737.0	1710.2
90.5	1709.0	1710.1
90.51	1730.0	1710.1
90.52	1771.0	1710.1
90.53	1765.0	1710.0
90.54	1742.0	1710.0
90.55	1743.0	1710.0
90.56	1753.0	1709.9
90.57	1766.0	1709.9
90.58	1774.0	1709.9
90.59	1755.0	1709.8
90.6	1728.0	1709.8
90.61	1712.0	1709.8
90.62	1700.0	1709.8
90.63	1733.0	1709.7
90.64	1770.0	1709.7
90.65	1760.0	1709.7
90.66	1744.0	1709.6
90.67	1720.0	1709.6
90.68	1746.0	1709.6
90.69	1750.0	1709.5
90.7	1755.0	1709.5
90.71	1730.0	1709.5
90.72	1703.0	1709.4
90.73	1737.0	1709.4
90.74	1737.0	1709.4
90.75	1749.0	1709.3
90.76	1790.0	1709.3
90.77	1792.0	1709.3
90.78	1749.0	1709.2
90.79	1716.0	1709.2
90.8	1737.0	1709.2
90.81	1763.0	1709.1
90.82	1772.0	1709.1
90.83	1780.0	1709.1
90.84	1766.0	1709.0
90.85	1736.0	1709.0
90.86	1718.0	1709.0
90.87	1759.0	1708.9
90.88	1781.0	1708.9
90.89	1779.0	1708.9
90.9	1795.0	1708.8
90.91	1785.0	1708.8
90.92	1773.0	1708.8
90.93	1759.0	1708.7
90.94	1749.0	1708.7
90.95	1759.0	1708.7
90.96	1759.0	1708.6
90.97	1756.0	1708.6
90.98	1754.0	1708.6
90.99	1733.0	1708.5
91.0	1726.0	1708.5
91.01	1743.0	1708.5
91.02	1739.0	1708.4
91.03	1724.0	1708.4
91.04	1723.0	1708.4
91.05	1748.0	1708.3
91.06	1783.0	1708.3
91.07	1769.0	1708.3
91.08	1745.0	1708.2
91.09	1738.0	1708.2
91.1	1727.0	1708.2
91.11	1732.0	1708.1
91.12	1750.0	1708.1
91.13	1730.0	1708.1
91.14	1723.0	1708.0
91.15	1757.0	1708.0
91.16	1761.0	1708.0
91.17	1730.0	1707.9
91.18	1706.0	1707.9
91.19	1726.0	1707.9
91.2	1743.0	1707.8
91.21	1739.0	1707.8
91.22	1755.0	1707.8
91.23	1750.0	1707.7
91.24	1711.0	1707.7
91.25	1686.0	1707.7
91.26	1714.0	1707.7
91.27	1754.0	1707.6
91.28	1762.0	1707.6
91.29	1767.0	1707.6
91.3	1753.0	1707.5
91.31	1744.0	1707.5
91.32	1725.0	1707.5
91.33	1735.0	1707.4
91.34	1779.0	1707.4
91.35	1752.0	1707.4
91.36	1730.0	1707.3
91.37	1757.0	1707.3
91.38	1780.0	1707.3
91.39	1793.0	1707.2
91.4	1813.0	1707.2
91.41	1807.0	1707.2
91.42	1772.0	1707.1
91.43	1763.0	1707.1
91.44	1767.0	1707.1
91.45	1745.0	1707.0
91.46	1713.0	1707.0
91.47	1707.0	1707.0
91.48	1703.0	1706.9
91.49	1705.0	1706.9
91.5	1733.0	1706.9
91.51	1749.0	1706.8
91.52	1752.0	1706.8
91.53	1754.0	1706.8
91.54	1778.0	1706.7
91.55	1780.0	1706.7
91.56	1717.0	1706.7
91.57	1684.0	1706.6
91.58	1727.0	1706.6
91.59	1754.0	1706.6
91.6	1749.0	1706.5
91.61	1752.0	1706.5
91.62	1770.0	1706.5
91.63	1767.0	1706.4
91.64	1755.0	1706.4
91.65	1767.0	1706.4
91.66	1770.0	1706.3
91.67	1777.0	1706.3
91.68	1783.0	1706.3
91.69	1768.0	1706.2
91.7	1757.0	1706.2
91.71	1755.0	1706.2
91.72	1759.0	1706.1
91.73	1764.0	1706.1
91.74	1769.0	1706.1
91.75	1753.0	1706.0
91.76	1733.0	1706.0
91.77	1724.0	1706.0
91.78	1733.0	1705.9
91.79	1759.0	1705.9
91.8	1740.0	1705.9
91.81	1710.0	1705.8
91.82	1722.0	1705.8
91.83	1765.0	1705.8
91.84	1795.0	1705.8
91.85	1769.0	1705.7
91.86	1748.0	1705.7
91.87	1763.0	1705.7
91.88	1743.0	1705.6
91.89	1753.0	1705.6
91.9	1775.0	1705.6
91.91	1763.0	1705.5
91.92	1773.0	1705.5
91.93	1762.0	1705.5
91.94	1753.0	1705.4
91.95	1768.0	1705.4
91.96	1791.0	1705.4
91.97	1784.0	1705.3
91.98	1738.0	1705.3
91.99	1736.0	1705.3
92.0	1738.0	1705.2
92.01	1717.0	1705.2
92.02	1747.0	1705.2
92.03	1774.0	1705.2
92.04	1778.0	1705.1
92.05	1771.0	1705.1
92.06	1744.0	1705.1
92.07	1743.0	1705.0
92.08	1769.0	1705.0
92.09	1751.0	1705.0
92.1	1686.0	1704.9
92.11	1665.0	1704.9
92.12	1740.0	1704.9
92.13	1796.0	1704.8
92.14	1785.0	1704.8
92.15	1743.0	1704.8
92.16	1718.0	1704.8
92.17	1731.0	1704.7
92.18	1761.0	1704.7
92.19	1777.0	1704.7
92.2	1758.0	1704.6
92.21	1731.0	1704.6
92.22	1741.0	1704.6
92.23	1743.0	1704.5
92.24	1708.0	1704.5
92.25	1732.0	1704.5
92.26	1759.0	1704.5
92.27	1724.0	1704.4
92.28	1724.0	1704.4
92.29	1742.0	1704.4
92.3	1708.0	1704.3
92.31	1702.0	1704.3
92.32	1730.0	1704.3
92.33	1735.0	1704.2
92.34	1735.0	1704.2
92.35	1769.0	1704.2
92.36	1767.0	1704.2
92.37	1785.0	1704.1
92.38	1807.0	1704.1
92.39	1770.0	1704.1
92.4	1751.0	1704.0
92.41	1751.0	1704.0
92.42	1752.0	1704.0
92.43	1744.0	1704.0
92.44	1721.0	1703.9
92.45	1727.0	1703.9
92.46	1764.0	1703.9
92.47	1781.0	1703.8
92.48	1766.0	1703.8
92.49	1748.0	1703.8
92.5	1741.0	1703.8
92.51	1729.0	1703.7
92.52	1712.0	1703.7
92.53	1707.0	1703.7
92.54	1699.0	1703.6
92.55	1693.0	1703.6
92.56	1728.0	1703.6
92.57	1742.0	1703.6
92.58	1728.0	1703.5
92.59	1755.0	1703.5
92.6	1773.0	1703.5
92.61	1763.0	1703.5
92.62	1745.0	1703.4
92.63	1756.0	1703.4
92.64	1770.0	1703.4
92.65	1769.0	1703.3
92.66	1759.0	1703.3
92.67	1757.0	1703.3
92.68	1754.0	1703.3
92.69	1746.0	1703.2
92.7	1767.0	1703.2
92.71	1789.0	1703.2
92.72	1752.0	1703.2
92.73	1733.0	1703.1
92.74	1764.0	1703.1
92.75	1773.0	1703.1
92.76	1734.0	1703.1
92.77	1732.0	1703.0
92.78	1741.0	1703.0
92.79	1753.0	1703.0
92.8	1755.0	1703.0
92.81	1772.0	1702.9
92.82	1775.0	1702.9
92.83	1794.0	1702.9
92.84	1801.0	1702.9
92.85	1788.0	1702.8
92.86	1730.0	1702.8
92.87	1707.0	1702.8
92.88	1741.0	1702.8
92.89	1773.0	1702.7
92.9	1761.0	1702.7
92.91	1751.0	1702.7
92.92	1761.0	1702.7
92.93	1775.0	1702.6
92.94	1756.0	1702.6
92.95	1731.0	1702.6
92.96	1762.0	1702.6
92.97	1743.0	1702.5
92.98	1717.0	1702.5
92.99	1705.0	1702.5
93.0	1716.0	1702.5
93.01	1716.0	1702.5
93.02	1757.0	1702.4
93.03	1790.0	1702.4
93.04	1793.0	1702.4
93.05	1784.0	1702.4
93.06	1778.0	1702.3
93.07	1772.0	1702.3
93.08	1799.0	1702.3
93.09	1817.0	1702.3
93.1	1811.0	1702.3
93.11	1785.0	1702.2
93.12	1754.0	1702.2
93.13	1737.0	1702.2
93.14	1718.0	1702.2
93.15	1718.0	1702.1
93.16	1741.0	1702.1
93.17	1758.0	1702.1
93.18	1775.0	1702.1
93.19	1771.0	1702.1
93.2	1752.0	1702.0
93.21	1776.0	1702.0
93.22	1799.0	1702.0
93.23	1789.0	1702.0
93.24	1792.0	1702.0
93.25	1738.0	1701.9
93.26	1754.0	1701.9
93.27	1765.0	1701.9
93.28	1741.0	1701.9
93.29	1748.0	1701.9
93.3	1756.0	1701.8
93.31	1779.0	1701.8
93.32	1768.0	1701.8
93.33	1771.0	1701.8
93.34	1760.0	1701.8
93.35	1735.0	1701.7
93.36	1762.0	1701.7
93.37	1758.0	1701.7
93.38	1703.0	1701.7
93.39	1712.0	1701.7
93.4	1702.0	1701.7
93.41	1717.0	1701.6
93.42	1728.0	1701.6
93.43	1753.0	1701.6
93.44	1758.0	1701.6
93.45	1716.0	1701.6
93.46	1749.0	1701.6
93.47	1800.0	1701.5
93.48	1799.0	1701.5
93.49	1790.0	1701.5
93.5	1823.0	1701.5
93.51	1766.0	1701.5
93.52	1716.0	1701.5
93.53	1745.0	1701.4
93.54	1781.0	1701.4
93.55	1759.0	1701.4
93.56	1738.0	1701.4
93.57	1743.0	1701.4
93.58	1747.0	1701.4
93.59	1736.0	1701.3
93.6	1747.0	1701.3
93.61	1785.0	1701.3
93.62	1787.0	1701.3
93.63	1802.0	1701.3
93.64	1789.0	1701.3
93.65	1752.0	1701.3
93.66	1752.0	1701.2
93.67	1772.0	1701.2
93.68	1752.0	1701.2
93.69	1741.0	1701.2
93.7	1802.0	1701.2
93.71	1834.0	1701.2
93.72	1768.0	1701.2
93.73	1729.0	1701.1
93.74	1751.0	1701.1
93.75	1764.0	1701.1
93.76	1773.0	1701.1
93.77	1788.0	1701.1
93.78	1797.0	1701.1
93.79	1755.0	1701.1
93.8	1741.0	1701.1
93.81	1751.0	1701.1
93.82	1748.0	1701.0
93.83	1783.0	1701.0
93.84	1821.0	1701.0
93.85	1770.0	1701.0
93.86	1730.0	1701.0
93.87	1752.0	1701.0
93.88	1732.0	1701.0
93.89	1743.0	1701.0
93.9	1783.0	1701.0
93.91	1775.0	1700.9
93.92	1764.0	1700.9
93.93	1757.0	1700.9
93.94	1751.0	1700.9
93.95	1759.0	1700.9
93.96	1759.0	1700.9
93.97	1756.0	1700.9
93.98	1748.0	1700.9
93.99	1732.0	1700.9
94.0	1759.0	1700.9
94.01	1773.0	1700.9
94.02	1797.0	1700.8
94.03	1799.0	1700.8
94.04	1815.0	1700.8
94.05	1784.0	1700.8
94.06	1757.0	1700.8
94.07	1734.0	1700.8
94.08	1740.0	1700.8
94.09	1750.0	1700.8
94.1	1763.0	1700.8
94.11	1778.0	1700.8
94.12	1720.0	1700.8
94.13	1710.0	1700.8
94.14	1724.0	1700.8
94.15	1750.0	1700.8
94.16	1759.0	1700.8
94.17	1764.0	1700.7
94.18	1790.0	1700.7
94.19	1803.0	1700.7
94.2	1787.0	1700.7
94.21	1732.0	1700.7
94.22	1721.0	1700.7
94.23	1758.0	1700.7
94.24	1737.0	1700.7
94.25	1715.0	1700.7
94.26	1748.0	1700.7
94.27	1763.0	1700.7
94.28	1773.0	1700.7
94.29	1757.0	1700.7
94.3	1744.0	1700.7
94.31	1753.0	1700.7
94.32	1784.0	1700.7
94.33	1753.0	1700.7
94.34	1708.0	1700.7
94.35	1679.0	1700.7
94.36	1674.0	1700.7
94.37	1708.0	1700.7
94.38	1779.0	1700.7
94.39	1803.0	1700.7
94.4	1778.0	1700.7
94.41	1755.0	1700.7
94.42	1736.0	1700.7
94.43	1737.0	1700.7
94.44	1748.0	1700.7
94.45	1761.0	1700.7
94.46	1734.0	1700.7
94.47	1712.0	1700.7
94.48	1731.0	1700.7
94.49	1767.0	1700.7
94.5	1758.0	1700.7
94.51	1748.0	1700.7
94.52	1758.0	1700.7
94.53	1775.0	1700.7
94.54	1754.0	1700.7
94.55	1740.0	1700.7
94.56	1746.0	1700.7
94.57	1745.0	1700.7
94.58	1721.0	1700.7
94.59	1731.0	1700.7
94.6	1758.0	1700.7
94.61	1775.0	1700.7
94.62	1779.0	1700.7
94.63	1764.0	1700.7
94.64	1732.0	1700.7
94.65	1722.0	1700.7
94.66	1715.0	1700.7
94.67	1781.0	1700.7
94.68	1789.0	1700.7
94.69	1795.0	1700.8
94.7	1793.0	1700.8
94.71	1772.0	1700.8
94.72	1770.0	1700.8
94.73	1766.0	1700.8
94.74	1778.0	1700.8
94.75	1740.0	1700.8
94.76	1753.0	1700.8
94.77	1741.0	1700.8
94.78	1730.0	1700.8
94.79	1729.0	1700.8
94.8	1764.0	1700.8
94.81	1761.0	1700.8
94.82	1781.0	1700.8
94.83	1777.0	1700.8
94.84	1735.0	1700.9
94.85	1743.0	1700.9
94.86	1744.0	1700.9
94.87	1738.0	1700.9
94.88	1768.0	1700.9
94.89	1789.0	1700.9
94.9	1785.0	1700.9
94.91	1752.0	1700.9
94.92	1765.0	1700.9
94.93	1787.0	1700.9
94.94	1753.0	1700.9
94.95	1763.0	1700.9
94.96	1772.0	1701.0
94.97	1794.0	1701.0
94.98	1757.0	1701.0
94.99	1749.0	1701.0
95.0	1749.0	1701.0
95.01	1726.0	1701.0
95.02	1694.0	1701.0
95.03	1727.0	1701.0
95.04	1779.0	1701.0
95.05	1771.0	1701.1
95.06	1744.0	1701.1
95.07	1764.0	1701.1
95.08	1734.0	1701.1
95.09	1734.0	1701.1
95.1	1774.0	1701.1
95.11	1782.0	1701.1
95.12	1764.0	1701.1
95.13	1790.0	1701.2
95.14	1793.0	1701.2
95.15	1784.0	1701.2
95.16	1783.0	1701.2
95.17	1707.0	1701.2
95.18	1724.0	1701.2
95.19	1762.0	1701.2
95.2	1782.0	1701.3
95.21	1765.0	1701.3
95.22	1767.0	1701.3
95.23	1808.0	1701.3
95.24	1790.0	1701.3
95.25	1717.0	1701.3
95.26	1685.0	1701.3
95.27	1703.0	1701.4
95.28	1746.0	1701.4
95.29	1770.0	1701.4
95.3	1783.0	1701.4
95.31	1789.0	1701.4
95.32	1765.0	1701.4
95.33	1708.0	1701.5
95.34	1753.0	1701.5
95.35	1729.0	1701.5
95.36	1723.0	1701.5
95.37	1713.0	1701.5
95.38	1745.0	1701.5
95.39	1735.0	1701.6
95.4	1731.0	1701.6
95.41	1779.0	1701.6
95.42	1784.0	1701.6
95.43	1749.0	1701.6
95.44	1740.0	1701.7
95.45	1777.0	1701.7
95.46	1793.0	1701.7
95.47	1811.0	1701.7
95.48	1780.0	1701.7
95.49	1766.0	1701.7
95.5	1786.0	1701.8
95.51	1773.0	1701.8
95.52	1765.0	1701.8
95.53	1778.0	1701.8
95.54	1764.0	1701.8
95.55	1745.0	1701.9
95.56	1751.0	1701.9
95.57	1746.0	1701.9
95.58	1711.0	1701.9
95.59	1724.0	1701.9
95.6	1766.0	1702.0
95.61	1804.0	1702.0
95.62	1766.0	1702.0
95.63	1723.0	1702.0
95.64	1736.0	1702.1
95.65	1759.0	1702.1
95.66	1764.0	1702.1
95.67	1743.0	1702.1
95.68	1733.0	1702.1
95.69	1742.0	1702.2
95.7	1783.0	1702.2
95.71	1773.0	1702.2
95.72	1788.0	1702.2
95.73	1822.0	1702.3
95.74	1783.0	1702.3
95.75	1740.0	1702.3
95.76	1759.0	1702.3
95.77	1784.0	1702.4
95.78	1786.0	1702.4
95.79	1708.0	1702.4
95.8	1755.0	1702.4
95.81	1783.0	1702.4
95.82	1765.0	1702.5
95.83	1766.0	1702.5
95.84	1803.0	1702.5
95.85	1790.0	1702.5
95.86	1752.0	1702.6
95.87	1754.0	1702.6
95.88	1738.0	1702.6
95.89	1754.0	1702.6
95.9	1806.0	1702.7
95.91	1777.0	1702.7
95.92	1742.0	1702.7
95.93	1733.0	1702.7
95.94	1758.0	1702.8
95.95	1786.0	1702.8
95.96	1747.0	1702.8
95.97	1781.0	1702.9
95.98	1734.0	1702.9
95.99	1734.0	1702.9
96.0	1737.0	1702.9
96.01	1756.0	1703.0
96.02	1728.0	1703.0
96.03	1774.0	1703.0
96.04	1763.0	1703.0
96.05	1763.0	1703.1
96.06	1776.0	1703.1
96.07	1756.0	1703.1
96.08	1760.0	1703.2
96.09	1789.0	1703.2
96.1	1812.0	1703.2
96.11	1808.0	1703.2
96.12	1799.0	1703.3
96.13	1767.0	1703.3
96.14	1745.0	1703.3
96.15	1757.0	1703.4
96.16	1738.0	1703.4
96.17	1739.0	1703.4
96.18	1786.0	1703.4
96.19	1790.0	1703.5
96.2	1777.0	1703.5
96.21	1746.0	1703.5
96.22	1724.0	1703.6
96.23	1706.0	1703.6
96.24	1723.0	1703.6
96.25	1753.0	1703.7
96.26	1762.0	1703.7
96.27	1784.0	1703.7
96.28	1753.0	1703.8
96.29	1748.0	1703.8
96.3	1772.0	1703.8
96.31	1776.0	1703.8
96.32	1752.0	1703.9
96.33	1777.0	1703.9
96.34	1783.0	1703.9
96.35	1767.0	1704.0
96.36	1761.0	1704.0
96.37	1765.0	1704.0
96.38	1764.0	1704.1
96.39	1797.0	1704.1
96.4	1788.0	1704.1
96.41	1753.0	1704.2
96.42	1796.0	1704.2
96.43	1763.0	1704.2
96.44	1761.0	1704.3
96.45	1732.0	1704.3
96.46	1745.0	1704.3
96.47	1761.0	1704.4
96.48	1730.0	1704.4
96.49	1762.0	1704.4
96.5	1761.0	1704.5
96.51	1759.0	1704.5
96.52	1742.0	1704.5
96.53	1717.0	1704.6
96.54	1753.0	1704.6
96.55	1763.0	1704.6
96.56	1775.0	1704.7
96.57	1743.0	1704.7
96.58	1729.0	1704.7
96.59	1760.0	1704.8
96.6	1788.0	1704.8
96.61	1754.0	1704.8
96.62	1773.0	1704.9
96.63	1762.0	1704.9
96.64	1750.0	1705.0
96.65	1737.0	1705.0
96.66	1718.0	1705.0
96.67	1723.0	1705.1
96.68	1751.0	1705.1
96.69	1774.0	1705.1
96.7	1758.0	1705.2
96.71	1734.0	1705.2
96.72	1740.0	1705.2
96.73	1760.0	1705.3
96.74	1779.0	1705.3
96.75	1785.0	1705.4
96.76	1753.0	1705.4
96.77	1755.0	1705.4
96.78	1782.0	1705.5
96.79	1714.0	1705.5
96.8	1715.0	1705.5
96.81	1758.0	1705.6
96.82	1790.0	1705.6
96.83	1773.0	1705.7
96.84	1767.0	1705.7
96.85	1731.0	1705.7
96.86	1754.0	1705.8
96.87	1759.0	1705.8
96.88	1802.0	1705.8
96.89	1784.0	1705.9
96.9	1740.0	1705.9
96.91	1729.0	1706.0
96.92	1724.0	1706.0
96.93	1736.0	1706.0
96.94	1762.0	1706.1
96.95	1775.0	1706.1
96.96	1759.0	1706.2
96.97	1788.0	1706.2
96.98	1798.0	1706.2
96.99	1808.0	1706.3
97.0	1797.0	1706.3
97.01	1783.0	1706.4
97.02	1827.0	1706.4
97.03	1744.0	1706.4
97.04	1741.0	1706.5
97.05	1775.0	1706.5
97.06	1783.0	1706.6
97.07	1827.0	1706.6
97.08	1795.0	1706.6
97.09	1785.0	1706.7
97.1	1781.0	1706.7
97.11	1743.0	1706.8
97.12	1753.0	1706.8
97.13	1757.0	1706.8
97.14	1791.0	1706.9
97.15	1775.0	1706.9
97.16	1734.0	1707.0
97.17	1744.0	1707.0
97.18	1760.0	1707.0
97.19	1757.0	1707.1
97.2	1730.0	1707.1
97.21	1805.0	1707.2
97.22	1798.0	1707.2
97.23	1738.0	1707.3
97.24	1716.0	1707.3
97.25	1795.0	1707.3
97.26	1786.0	1707.4
97.27	1741.0	1707.4
97.28	1734.0	1707.5
97.29	1718.0	1707.5
97.3	1744.0	1707.6
97.31	1733.0	1707.6
97.32	1733.0	1707.6
97.33	1791.0	1707.7
97.34	1816.0	1707.7
97.35	1776.0	1707.8
97.36	1762.0	1707.8
97.37	1794.0	1707.9
97.38	1772.0	1707.9
97.39	1739.0	1707.9
97.4	1763.0	1708.0
97.41	1818.0	1708.0
97.42	1804.0	1708.1
97.43	1819.0	1708.1
97.44	1769.0	1708.2
97.45	1748.0	1708.2
97.46	1758.0	1708.2
97.47	1766.0	1708.3
97.48	1791.0	1708.3
97.49	1756.0	1708.4
97.5	1761.0	1708.4
97.51	1742.0	1708.5
97.52	1781.0	1708.5
97.53	1741.0	1708.6
97.54	1780.0	1708.6
97.55	1854.0	1708.7
97.56	1818.0	1708.7
97.57	1776.0	1708.7
97.58	1793.0	1708.8
97.59	1765.0	1708.8
97.6	1719.0	1708.9
97.61	1764.0	1708.9
97.62	1747.0	1709.0
97.63	1770.0	1709.0
97.64	1800.0	1709.1
97.65	1776.0	1709.1
97.66	1771.0	1709.2
97.67	1757.0	1709.2
97.68	1716.0	1709.2
97.69	1746.0	1709.3
97.7	1812.0	1709.3
97.71	1801.0	1709.4
97.72	1817.0	1709.4
97.73	1759.0	1709.5
97.74	1737.0	1709.5
97.75	1773.0	1709.6
97.76	1776.0	1709.6
97.77	1770.0	1709.7
97.78	1766.0	1709.7
97.79	1759.0	1709.8
97.8	1753.0	1709.8
97.81	1799.0	1709.9
97.82	1823.0	1709.9
97.83	1811.0	1710.0
97.84	1764.0	1710.0
97.85	1736.0	1710.0
97.86	1771.0	1710.1
97.87	1786.0	1710.1
97.88	1765.0	1710.2
97.89	1771.0	1710.2
97.9	1722.0	1710.3
97.91	1822.0	1710.3
97.92	1789.0	1710.4
97.93	1751.0	1710.4
97.94	1759.0	1710.5
97.95	1789.0	1710.5
97.96	1787.0	1710.6
97.97	1773.0	1710.6
97.98	1744.0	1710.7
97.99	1732.0	1710.7
98.0	1790.0	1710.8
98.01	1795.0	1710.8
98.02	1777.0	1710.9
98.03	1811.0	1710.9
98.04	1799.0	1711.0
98.05	1823.0	1711.0
98.06	1810.0	1711.1
98.07	1801.0	1711.1
98.08	1824.0	1711.2
98.09	1821.0	1711.2
98.1	1800.0	1711.3
98.11	1821.0	1711.3
98.12	1839.0	1711.4
98.13	1855.0	1711.4
98.14	1801.0	1711.5
98.15	1796.0	1711.5
98.16	1758.0	1711.6
98.17	1753.0	1711.6
98.18	1811.0	1711.7
98.19	1817.0	1711.7
98.2	1799.0	1711.8
98.21	1778.0	1711.8
98.22	1777.0	1711.9
98.23	1817.0	1711.9
98.24	1764.0	1712.0
98.25	1781.0	1712.0
98.26	1744.0	1712.1
98.27	1743.0	1712.1
98.28	1751.0	1712.2
98.29	1770.0	1712.2
98.3	1791.0	1712.3
98.31	1746.0	1712.3
98.32	1758.0	1712.4
98.33	1768.0	1712.4
98.34	1780.0	1712.5
98.35	1757.0	1712.5
98.36	1755.0	1712.6
98.37	1807.0	1712.6
98.38	1834.0	1712.7
98.39	1806.0	1712.7
98.4	1786.0	1712.8
98.41	1790.0	1712.8
98.42	1835.0	1712.9
98.43	1814.0	1712.9
98.44	1806.0	1713.0
98.45	1789.0	1713.0
98.46	1808.0	1713.1
98.47	1795.0	1713.1
98.48	1810.0	1713.2
98.49	1810.0	1713.2
98.5	1818.0	1713.3
98.51	1766.0	1713.3
98.52	1779.0	1713.4
98.53	1805.0	1713.4
98.54	1791.0	1713.5
98.55	1774.0	1713.6
98.56	1756.0	1713.6
98.57	1782.0	1713.7
98.58	1798.0	1713.7
98.59	1766.0	1713.8
98.6	1753.0	1713.8
98.61	1773.0	1713.9
98.62	1805.0	1713.9
98.63	1785.0	1714.0
98.64	1822.0	1714.0
98.65	1836.0	1714.1
98.66	1804.0	1714.1
98.67	1788.0	1714.2
98.68	1806.0	1714.2
98.69	1858.0	1714.3
98.7	1829.0	1714.3
98.71	1811.0	1714.4
98.72	1776.0	1714.4
98.73	1809.0	1714.5
98.74	1803.0	1714.6
98.75	1760.0	1714.6
98.76	1759.0	1714.7
98.77	1794.0	1714.7
98.78	1827.0	1714.8
98.79	1799.0	1714.8
98.8	1805.0	1714.9
98.81	1823.0	1714.9
98.82	1793.0	1715.0
98.83	1793.0	1715.0
98.84	1818.0	1715.1
98.85	1771.0	1715.1
98.86	1786.0	1715.2
98.87	1805.0	1715.2
98.88	1854.0	1715.3
98.89	1769.0	1715.4
98.9	1732.0	1715.4
98.91	1791.0	1715.5
98.92	1812.0	1715.5
98.93	1812.0	1715.6
98.94	1754.0	1715.6
98.95	1778.0	1715.7
98.96	1820.0	1715.7
98.97	1771.0	1715.8
98.98	1773.0	1715.8
98.99	1771.0	1715.9
99.0	1792.0	1715.9
99.01	1824.0	1716.0
99.02	1765.0	1716.1
99.03	1790.0	1716.1
99.04	1771.0	1716.2
99.05	1770.0	1716.2
99.06	1815.0	1716.3
99.07	1864.0	1716.3
99.08	1873.0	1716.4
99.09	1839.0	1716.4
99.1	1813.0	1716.5
99.11	1833.0	1716.5
99.12	1809.0	1716.6
99.13	1831.0	1716.7
99.14	1786.0	1716.7
99.15	1761.0	1716.8
99.16	1840.0	1716.8
99.17	1821.0	1716.9
99.18	1814.0	1716.9
99.19	1787.0	1717.0
99.2	1805.0	1717.0
99.21	1787.0	1717.1
99.22	1800.0	1717.1
99.23	1798.0	1717.2
99.24	1800.0	1717.3
99.25	1828.0	1717.3
99.26	1818.0	1717.4
99.27	1808.0	1717.4
99.28	1782.0	1717.5
99.29	1815.0	1717.5
99.3	1894.0	1717.6
99.31	1800.0	1717.6
99.32	1824.0	1717.7
99.33	1797.0	1717.8
99.34	1808.0	1717.8
99.35	1840.0	1717.9
99.36	1831.0	1717.9
99.37	1820.0	1718.0
99.38	1798.0	1718.0
99.39	1814.0	1718.1
99.4	1844.0	1718.1
99.41	1808.0	1718.2
99.42	1856.0	1718.3
99.43	1848.0	1718.3
99.44	1826.0	1718.4
99.45	1832.0	1718.4
99.46	1812.0	1718.5
99.47	1778.0	1718.5
99.48	1783.0	1718.6
99.49	1820.0	1718.6
99.5	1807.0	1718.7
99.51	1841.0	1718.8
99.52	1788.0	1718.8
99.53	1777.0	1718.9
99.54	1768.0	1718.9
99.55	1829.0	1719.0
99.56	1843.0	1719.0
99.57	1788.0	1719.1
99.58	1857.0	1719.1
99.59	1841.0	1719.2
99.6	1795.0	1719.3
99.61	1801.0	1719.3
99.62	1823.0	1719.4
99.63	1815.0	1719.4
99.64	1824.0	1719.5
99.65	1795.0	1719.5
99.66	1795.0	1719.6
99.67	1812.0	1719.6
99.68	1783.0	1719.7
99.69	1808.0	1719.8
99.7	1842.0	1719.8
99.71	1857.0	1719.9
99.72	1772.0	1719.9
99.73	1797.0	1720.0
99.74	1805.0	1720.0
99.75	1812.0	1720.1
99.76	1836.0	1720.1
99.77	1866.0	1720.2
99.78	1863.0	1720.3
99.79	1910.0	1720.3
99.8	1842.0	1720.4
99.81	1805.0	1720.4
99.82	1830.0	1720.5
99.83	1837.0	1720.5
99.84	1795.0	1720.6
99.85	1809.0	1720.6
99.86	1822.0	1720.7
99.87	1769.0	1720.8
99.88	1753.0	1720.8
99.89	1810.0	1720.9
99.9	1771.0	1720.9
99.91	1765.0	1721.0
99.92	1869.0	1721.0
99.93	1849.0	1721.1
99.94	1814.0	1721.2
99.95	1852.0	1721.2
99.96	1850.0	1721.3
99.97	1890.0	1721.3
99.98	1827.0	1721.4
99.99	1802.0	1721.4
100.0	1843.0	1721.5
