BroadPeak_MnF2_SPEX3
Wavelength = 1.54059 Ã… (Cu)
Angle	I(o)	I(b)
10.0	1781.0	1794.2
10.01	1779.0	1794.6
10.02	1825.0	1795.0
10.03	1795.0	1795.4
10.04	1828.0	1795.8
10.05	1856.0	1796.2
10.06	1806.0	1796.6
10.07	1834.0	1797.0
10.08	1798.0	1797.4
10.09	1777.0	1797.8
10.1	1748.0	1798.2
10.11	1725.0	1798.6
10.12	1802.0	1799.0
10.13	1851.0	1799.4
10.14	1807.0	1799.8
10.15	1812.0	1800.2
10.16	1741.0	1800.6
10.17	1788.0	1801.0
10.18	1818.0	1801.4
10.19	1829.0	1801.8
10.2	1839.0	1802.2
10.21	1808.0	1802.6
10.22	1795.0	1803.0
10.23	1814.0	1803.4
10.24	1837.0	1803.9
10.25	1840.0	1804.3
10.26	1853.0	1804.7
10.27	1863.0	1805.1
10.28	1816.0	1805.5
10.29	1847.0	1805.9
10.3	1847.0	1806.3
10.31	1799.0	1806.8
10.32	1796.0	1807.2
10.33	1838.0	1807.6
10.34	1912.0	1808.0
10.35	1799.0	1808.5
10.36	1776.0	1808.9
10.37	1816.0	1809.3
10.38	1770.0	1809.8
10.39	1823.0	1810.2
10.4	1882.0	1810.6
10.41	1858.0	1811.1
10.42	1819.0	1811.5
10.43	1842.0	1811.9
10.44	1838.0	1812.4
10.45	1835.0	1812.8
10.46	1837.0	1813.3
10.47	1846.0	1813.7
10.48	1832.0	1814.2
10.49	1821.0	1814.6
10.5	1814.0	1815.1
10.51	1849.0	1815.6
10.52	1825.0	1816.0
10.53	1846.0	1816.5
10.54	1854.0	1817.0
10.55	1815.0	1817.4
10.56	1829.0	1817.9
10.57	1897.0	1818.4
10.58	1867.0	1818.9
10.59	1834.0	1819.4
10.6	1854.0	1819.8
10.61	1856.0	1820.3
10.62	1900.0	1820.8
10.63	1926.0	1821.3
10.64	1912.0	1821.8
10.65	1898.0	1822.3
10.66	1880.0	1822.8
10.67	1890.0	1823.3
10.68	1847.0	1823.9
10.69	1878.0	1824.4
10.7	1868.0	1824.9
10.71	1872.0	1825.4
10.72	1882.0	1825.9
10.73	1922.0	1826.5
10.74	1896.0	1827.0
10.75	1803.0	1827.6
10.76	1792.0	1828.1
10.77	1907.0	1828.6
10.78	1861.0	1829.2
10.79	1900.0	1829.7
10.8	1900.0	1830.3
10.81	1913.0	1830.9
10.82	1882.0	1831.4
10.83	1889.0	1832.0
10.84	1892.0	1832.6
10.85	1864.0	1833.2
10.86	1868.0	1833.7
10.87	1854.0	1834.3
10.88	1877.0	1834.9
10.89	1878.0	1835.5
10.9	1900.0	1836.1
10.91	1880.0	1836.7
10.92	1906.0	1837.3
10.93	1885.0	1838.0
10.94	1892.0	1838.6
10.95	1833.0	1839.2
10.96	1879.0	1839.8
10.97	1925.0	1840.5
10.98	1936.0	1841.1
10.99	1839.0	1841.8
11.0	1895.0	1842.4
11.01	1878.0	1843.1
11.02	1908.0	1843.7
11.03	1932.0	1844.4
11.04	1989.0	1845.1
11.05	1955.0	1845.7
11.06	1877.0	1846.4
11.07	1878.0	1847.1
11.08	1880.0	1847.8
11.09	1866.0	1848.5
11.1	1870.0	1849.2
11.11	1847.0	1849.9
11.12	1835.0	1850.6
11.13	1837.0	1851.4
11.14	1901.0	1852.1
11.15	1860.0	1852.8
11.16	1886.0	1853.6
11.17	1930.0	1854.3
11.18	1933.0	1855.1
11.19	1919.0	1855.8
11.2	1954.0	1856.6
11.21	1911.0	1857.3
11.22	1943.0	1858.1
11.23	1925.0	1858.9
11.24	1916.0	1859.7
11.25	1875.0	1860.5
11.26	1903.0	1861.2
11.27	1908.0	1862.0
11.28	1938.0	1862.8
11.29	1968.0	1863.7
11.3	1933.0	1864.5
11.31	1860.0	1865.3
11.32	1937.0	1866.1
11.33	1916.0	1866.9
11.34	1967.0	1867.8
11.35	1967.0	1868.6
11.36	1964.0	1869.4
11.37	1940.0	1870.3
11.38	1960.0	1871.1
11.39	1951.0	1872.0
11.4	1933.0	1872.8
11.41	1935.0	1873.7
11.42	1911.0	1874.6
11.43	1917.0	1875.4
11.44	1895.0	1876.3
11.45	1903.0	1877.2
11.46	1884.0	1878.1
11.47	1900.0	1879.0
11.48	1962.0	1879.9
11.49	1946.0	1880.8
11.5	1908.0	1881.7
11.51	1939.0	1882.6
11.52	1925.0	1883.5
11.53	1927.0	1884.4
11.54	1947.0	1885.3
11.55	1961.0	1886.2
11.56	1927.0	1887.1
11.57	1914.0	1888.1
11.58	2019.0	1889.0
11.59	1990.0	1889.9
11.6	1948.0	1890.9
11.61	1931.0	1891.8
11.62	1937.0	1892.7
11.63	1954.0	1893.7
11.64	1949.0	1894.6
11.65	1928.0	1895.6
11.66	1921.0	1896.5
11.67	1961.0	1897.5
11.68	1941.0	1898.5
11.69	1902.0	1899.4
11.7	1932.0	1900.4
11.71	1957.0	1901.4
11.72	1933.0	1902.3
11.73	1941.0	1903.3
11.74	2046.0	1904.3
11.75	2006.0	1905.3
11.76	1993.0	1906.2
11.77	2036.0	1907.2
11.78	1994.0	1908.2
11.79	2000.0	1909.2
11.8	1954.0	1910.2
11.81	1988.0	1911.2
11.82	2031.0	1912.2
11.83	1999.0	1913.2
11.84	2012.0	1914.2
11.85	1989.0	1915.2
11.86	1944.0	1916.2
11.87	1954.0	1917.2
11.88	2012.0	1918.2
11.89	1960.0	1919.2
11.9	1960.0	1920.2
11.91	1997.0	1921.3
11.92	1942.0	1922.3
11.93	1890.0	1923.3
11.94	1992.0	1924.3
11.95	2026.0	1925.3
11.96	1988.0	1926.4
11.97	1936.0	1927.4
11.98	2000.0	1928.4
11.99	1998.0	1929.4
12.0	1994.0	1930.5
12.01	1990.0	1931.5
12.02	2007.0	1932.5
12.03	2035.0	1933.6
12.04	2022.0	1934.6
12.05	1962.0	1935.6
12.06	1956.0	1936.7
12.07	1973.0	1937.7
12.08	1973.0	1938.7
12.09	1996.0	1939.8
12.1	2028.0	1940.8
12.11	1980.0	1941.8
12.12	1967.0	1942.9
12.13	1986.0	1943.9
12.14	1990.0	1945.0
12.15	1996.0	1946.0
12.16	2004.0	1947.1
12.17	2012.0	1948.1
12.18	2056.0	1949.1
12.19	2055.0	1950.2
12.2	2000.0	1951.2
12.21	2002.0	1952.3
12.22	1975.0	1953.3
12.23	1980.0	1954.4
12.24	2041.0	1955.4
12.25	2026.0	1956.5
12.26	1973.0	1957.5
12.27	2000.0	1958.6
12.28	2012.0	1959.6
12.29	2008.0	1960.6
12.3	2003.0	1961.7
12.31	1999.0	1962.7
12.32	1993.0	1963.8
12.33	2009.0	1964.8
12.34	1991.0	1965.9
12.35	1987.0	1966.9
12.36	2009.0	1968.0
12.37	1994.0	1969.0
12.38	2004.0	1970.0
12.39	2016.0	1971.1
12.4	2017.0	1972.1
12.41	1995.0	1973.2
12.42	2043.0	1974.2
12.43	2036.0	1975.2
12.44	2058.0	1976.3
12.45	2058.0	1977.3
12.46	2013.0	1978.3
12.47	2056.0	1979.4
12.48	2036.0	1980.4
12.49	1995.0	1981.4
12.5	2007.0	1982.5
12.51	1971.0	1983.5
12.52	1982.0	1984.5
12.53	2006.0	1985.6
12.54	2013.0	1986.6
12.55	2028.0	1987.6
12.56	2035.0	1988.6
12.57	2045.0	1989.7
12.58	2069.0	1990.7
12.59	2066.0	1991.7
12.6	2010.0	1992.7
12.61	1995.0	1993.7
12.62	2045.0	1994.7
12.63	2063.0	1995.7
12.64	2024.0	1996.8
12.65	1977.0	1997.8
12.66	2047.0	1998.8
12.67	2059.0	1999.8
12.68	2083.0	2000.8
12.69	2057.0	2001.8
12.7	2034.0	2002.8
12.71	2080.0	2003.8
12.72	2060.0	2004.7
12.73	2074.0	2005.7
12.74	2005.0	2006.7
12.75	1956.0	2007.7
12.76	1978.0	2008.7
12.77	2064.0	2009.7
12.78	2033.0	2010.6
12.79	2029.0	2011.6
12.8	2054.0	2012.6
12.81	2037.0	2013.6
12.82	2036.0	2014.5
12.83	2016.0	2015.5
12.84	2063.0	2016.4
12.85	2008.0	2017.4
12.86	1976.0	2018.3
12.87	2021.0	2019.3
12.88	2008.0	2020.2
12.89	2011.0	2021.2
12.9	2064.0	2022.1
12.91	2060.0	2023.1
12.92	2072.0	2024.0
12.93	2074.0	2024.9
12.94	2057.0	2025.9
12.95	2050.0	2026.8
12.96	2067.0	2027.7
12.97	2056.0	2028.6
12.98	2056.0	2029.5
12.99	2096.0	2030.4
13.0	2073.0	2031.3
13.01	2087.0	2032.2
13.02	2122.0	2033.1
13.03	2108.0	2034.0
13.04	2159.0	2034.9
13.05	2104.0	2035.8
13.06	2095.0	2036.7
13.07	2041.0	2037.6
13.08	2056.0	2038.4
13.09	2030.0	2039.3
13.1	2041.0	2040.2
13.11	2066.0	2041.0
13.12	2047.0	2041.9
13.13	2056.0	2042.7
13.14	2054.0	2043.6
13.15	2028.0	2044.4
13.16	2038.0	2045.3
13.17	2083.0	2046.1
13.18	2083.0	2046.9
13.19	2058.0	2047.8
13.2	2075.0	2048.6
13.21	2073.0	2049.4
13.22	2113.0	2050.2
13.23	2111.0	2051.0
13.24	2105.0	2051.8
13.25	2113.0	2052.6
13.26	2099.0	2053.4
13.27	2082.0	2054.2
13.28	2100.0	2055.0
13.29	2088.0	2055.8
13.3	2112.0	2056.5
13.31	2069.0	2057.3
13.32	2117.0	2058.1
13.33	2102.0	2058.8
13.34	2061.0	2059.6
13.35	2082.0	2060.3
13.36	2066.0	2061.1
13.37	2098.0	2061.8
13.38	2112.0	2062.6
13.39	2087.0	2063.3
13.4	2109.0	2064.0
13.41	2068.0	2064.8
13.42	2075.0	2065.5
13.43	2118.0	2066.2
13.44	2109.0	2066.9
13.45	2105.0	2067.6
13.46	2071.0	2068.3
13.47	2090.0	2069.0
13.48	2134.0	2069.7
13.49	2156.0	2070.4
13.5	2118.0	2071.1
13.51	2089.0	2071.8
13.52	2111.0	2072.5
13.53	2072.0	2073.1
13.54	2115.0	2073.8
13.55	2105.0	2074.5
13.56	2115.0	2075.1
13.57	2088.0	2075.8
13.58	2144.0	2076.4
13.59	2159.0	2077.1
13.6	2110.0	2077.7
13.61	2110.0	2078.4
13.62	2113.0	2079.0
13.63	2124.0	2079.6
13.64	2126.0	2080.3
13.65	2134.0	2080.9
13.66	2081.0	2081.5
13.67	2085.0	2082.1
13.68	2091.0	2082.7
13.69	2103.0	2083.3
13.7	2121.0	2083.9
13.71	2154.0	2084.5
13.72	2159.0	2085.1
13.73	2084.0	2085.7
13.74	2119.0	2086.3
13.75	2136.0	2086.9
13.76	2114.0	2087.5
13.77	2107.0	2088.0
13.78	2108.0	2088.6
13.79	2074.0	2089.2
13.8	2101.0	2089.7
13.81	2139.0	2090.3
13.82	2134.0	2090.8
13.83	2127.0	2091.4
13.84	2164.0	2091.9
13.85	2144.0	2092.5
13.86	2085.0	2093.0
13.87	2123.0	2093.5
13.88	2170.0	2094.1
13.89	2145.0	2094.6
13.9	2084.0	2095.1
13.91	2106.0	2095.6
13.92	2123.0	2096.1
13.93	2053.0	2096.6
13.94	2124.0	2097.1
13.95	2165.0	2097.6
13.96	2143.0	2098.1
13.97	2150.0	2098.6
13.98	2153.0	2099.1
13.99	2155.0	2099.6
14.0	2126.0	2100.1
14.01	2112.0	2100.5
14.02	2104.0	2101.0
14.03	2146.0	2101.5
14.04	2139.0	2101.9
14.05	2095.0	2102.4
14.06	2112.0	2102.9
14.07	2140.0	2103.3
14.08	2186.0	2103.8
14.09	2205.0	2104.2
14.1	2155.0	2104.6
14.11	2154.0	2105.1
14.12	2206.0	2105.5
14.13	2238.0	2105.9
14.14	2198.0	2106.3
14.15	2184.0	2106.8
14.16	2177.0	2107.2
14.17	2189.0	2107.6
14.18	2222.0	2108.0
14.19	2206.0	2108.4
14.2	2174.0	2108.8
14.21	2153.0	2109.2
14.22	2132.0	2109.6
14.23	2153.0	2110.0
14.24	2165.0	2110.4
14.25	2154.0	2110.7
14.26	2145.0	2111.1
14.27	2162.0	2111.5
14.28	2201.0	2111.9
14.29	2173.0	2112.2
14.3	2162.0	2112.6
14.31	2136.0	2112.9
14.32	2105.0	2113.3
14.33	2119.0	2113.7
14.34	2151.0	2114.0
14.35	2207.0	2114.3
14.36	2203.0	2114.7
14.37	2161.0	2115.0
14.38	2181.0	2115.3
14.39	2182.0	2115.7
14.4	2192.0	2116.0
14.41	2220.0	2116.3
14.42	2208.0	2116.6
14.43	2181.0	2116.9
14.44	2173.0	2117.3
14.45	2189.0	2117.6
14.46	2192.0	2117.9
14.47	2165.0	2118.2
14.48	2138.0	2118.5
14.49	2161.0	2118.7
14.5	2155.0	2119.0
14.51	2149.0	2119.3
14.52	2161.0	2119.6
14.53	2154.0	2119.9
14.54	2243.0	2120.1
14.55	2215.0	2120.4
14.56	2179.0	2120.7
14.57	2148.0	2120.9
14.58	2128.0	2121.2
14.59	2129.0	2121.4
14.6	2062.0	2121.7
14.61	2040.0	2121.9
14.62	2127.0	2122.2
14.63	2184.0	2122.4
14.64	2127.0	2122.7
14.65	2147.0	2122.9
14.66	2177.0	2123.1
14.67	2162.0	2123.3
14.68	2154.0	2123.6
14.69	2157.0	2123.8
14.7	2168.0	2124.0
14.71	2145.0	2124.2
14.72	2168.0	2124.4
14.73	2175.0	2124.6
14.74	2154.0	2124.8
14.75	2147.0	2125.0
14.76	2146.0	2125.2
14.77	2161.0	2125.4
14.78	2128.0	2125.6
14.79	2134.0	2125.8
14.8	2099.0	2126.0
14.81	2147.0	2126.1
14.82	2160.0	2126.3
14.83	2162.0	2126.5
14.84	2162.0	2126.6
14.85	2125.0	2126.8
14.86	2126.0	2127.0
14.87	2136.0	2127.1
14.88	2136.0	2127.3
14.89	2152.0	2127.4
14.9	2125.0	2127.6
14.91	2098.0	2127.7
14.92	2076.0	2127.8
14.93	2120.0	2128.0
14.94	2132.0	2128.1
14.95	2138.0	2128.2
14.96	2142.0	2128.4
14.97	2136.0	2128.5
14.98	2158.0	2128.6
14.99	2164.0	2128.7
15.0	2142.0	2128.8
15.01	2165.0	2128.9
15.02	2137.0	2129.0
15.03	2105.0	2129.1
15.04	2105.0	2129.2
15.05	2139.0	2129.3
15.06	2145.0	2129.4
15.07	2142.0	2129.5
15.08	2121.0	2129.6
15.09	2126.0	2129.7
15.1	2134.0	2129.8
15.11	2155.0	2129.8
15.12	2158.0	2129.9
15.13	2152.0	2130.0
15.14	2191.0	2130.1
15.15	2155.0	2130.1
15.16	2091.0	2130.2
15.17	2130.0	2130.2
15.18	2147.0	2130.3
15.19	2165.0	2130.3
15.2	2137.0	2130.4
15.21	2109.0	2130.4
15.22	2133.0	2130.5
15.23	2147.0	2130.5
15.24	2130.0	2130.5
15.25	2149.0	2130.6
15.26	2191.0	2130.6
15.27	2166.0	2130.6
15.28	2074.0	2130.6
15.29	2082.0	2130.7
15.3	2113.0	2130.7
15.31	2092.0	2130.7
15.32	2097.0	2130.7
15.33	2188.0	2130.7
15.34	2209.0	2130.7
15.35	2145.0	2130.7
15.36	2154.0	2130.7
15.37	2112.0	2130.7
15.38	2089.0	2130.7
15.39	2109.0	2130.7
15.4	2093.0	2130.6
15.41	2088.0	2130.6
15.42	2097.0	2130.6
15.43	2077.0	2130.6
15.44	2082.0	2130.5
15.45	2157.0	2130.5
15.46	2176.0	2130.5
15.47	2146.0	2130.4
15.48	2131.0	2130.4
15.49	2130.0	2130.4
15.5	2121.0	2130.3
15.51	2100.0	2130.3
15.52	2110.0	2130.2
15.53	2144.0	2130.2
15.54	2132.0	2130.1
15.55	2118.0	2130.0
15.56	2100.0	2130.0
15.57	2101.0	2129.9
15.58	2091.0	2129.8
15.59	2078.0	2129.8
15.6	2118.0	2129.7
15.61	2113.0	2129.6
15.62	2097.0	2129.5
15.63	2163.0	2129.4
15.64	2164.0	2129.4
15.65	2141.0	2129.3
15.66	2139.0	2129.2
15.67	2119.0	2129.1
15.68	2122.0	2129.0
15.69	2101.0	2128.9
15.7	2069.0	2128.8
15.71	2055.0	2128.7
15.72	2062.0	2128.5
15.73	2086.0	2128.4
15.74	2091.0	2128.3
15.75	2086.0	2128.2
15.76	2126.0	2128.1
15.77	2146.0	2128.0
15.78	2142.0	2127.8
15.79	2138.0	2127.7
15.8	2132.0	2127.6
15.81	2107.0	2127.4
15.82	2141.0	2127.3
15.83	2171.0	2127.1
15.84	2158.0	2127.0
15.85	2130.0	2126.9
15.86	2094.0	2126.7
15.87	2088.0	2126.6
15.88	2065.0	2126.4
15.89	2081.0	2126.2
15.9	2114.0	2126.1
15.91	2096.0	2125.9
15.92	2108.0	2125.7
15.93	2116.0	2125.6
15.94	2081.0	2125.4
15.95	2095.0	2125.2
15.96	2141.0	2125.1
15.97	2133.0	2124.9
15.98	2123.0	2124.7
15.99	2086.0	2124.5
16.0	2066.0	2124.3
16.01	2111.0	2124.1
16.02	2115.0	2123.9
16.03	2136.0	2123.7
16.04	2104.0	2123.5
16.05	2107.0	2123.3
16.06	2109.0	2123.1
16.07	2127.0	2122.9
16.08	2112.0	2122.7
16.09	2102.0	2122.5
16.1	2101.0	2122.3
16.11	2088.0	2122.1
16.12	2065.0	2121.9
16.13	2072.0	2121.6
16.14	2082.0	2121.4
16.15	2078.0	2121.2
16.16	2084.0	2121.0
16.17	2105.0	2120.7
16.18	2121.0	2120.5
16.19	2127.0	2120.3
16.2	2082.0	2120.0
16.21	2073.0	2119.8
16.22	2079.0	2119.5
16.23	2125.0	2119.3
16.24	2135.0	2119.0
16.25	2109.0	2118.8
16.26	2067.0	2118.5
16.27	2085.0	2118.3
16.28	2108.0	2118.0
16.29	2102.0	2117.7
16.3	2094.0	2117.5
16.31	2066.0	2117.2
16.32	2087.0	2116.9
16.33	2103.0	2116.7
16.34	2108.0	2116.4
16.35	2113.0	2116.1
16.36	2119.0	2115.8
16.37	2112.0	2115.6
16.38	2086.0	2115.3
16.39	2051.0	2115.0
16.4	2073.0	2114.7
16.41	2141.0	2114.4
16.42	2122.0	2114.1
16.43	2091.0	2113.8
16.44	2084.0	2113.5
16.45	2049.0	2113.2
16.46	2043.0	2112.9
16.47	2074.0	2112.6
16.48	2071.0	2112.3
16.49	2074.0	2112.0
16.5	2074.0	2111.7
16.51	2094.0	2111.4
16.52	2105.0	2111.1
16.53	2089.0	2110.7
16.54	2074.0	2110.4
16.55	2075.0	2110.1
16.56	2090.0	2109.8
16.57	2124.0	2109.4
16.58	2140.0	2109.1
16.59	2085.0	2108.8
16.6	2052.0	2108.4
16.61	2100.0	2108.1
16.62	2126.0	2107.8
16.63	2123.0	2107.4
16.64	2122.0	2107.1
16.65	2119.0	2106.7
16.66	2107.0	2106.4
16.67	2132.0	2106.0
16.68	2156.0	2105.7
16.69	2170.0	2105.3
16.7	2163.0	2105.0
16.71	2143.0	2104.6
16.72	2118.0	2104.2
16.73	2078.0	2103.9
16.74	2078.0	2103.5
16.75	2068.0	2103.1
16.76	2069.0	2102.8
16.77	2092.0	2102.4
16.78	2079.0	2102.0
16.79	2080.0	2101.6
16.8	2093.0	2101.3
16.81	2085.0	2100.9
16.82	2045.0	2100.5
16.83	2057.0	2100.1
16.84	2093.0	2099.7
16.85	2101.0	2099.3
16.86	2094.0	2098.9
16.87	2115.0	2098.6
16.88	2140.0	2098.2
16.89	2132.0	2097.8
16.9	2116.0	2097.4
16.91	2095.0	2097.0
16.92	2110.0	2096.6
16.93	2145.0	2096.1
16.94	2154.0	2095.7
16.95	2146.0	2095.3
16.96	2122.0	2094.9
16.97	2095.0	2094.5
16.98	2082.0	2094.1
16.99	2084.0	2093.7
17.0	2093.0	2093.2
17.01	2108.0	2092.8
17.02	2128.0	2092.4
17.03	2094.0	2092.0
17.04	2102.0	2091.5
17.05	2112.0	2091.1
17.06	2079.0	2090.7
17.07	2099.0	2090.3
17.08	2134.0	2089.8
17.09	2115.0	2089.4
17.1	2116.0	2088.9
17.11	2120.0	2088.5
17.12	2084.0	2088.1
17.13	2085.0	2087.6
17.14	2091.0	2087.2
17.15	2093.0	2086.7
17.16	2112.0	2086.3
17.17	2119.0	2085.8
17.18	2133.0	2085.4
17.19	2130.0	2084.9
17.2	2113.0	2084.4
17.21	2098.0	2084.0
17.22	2088.0	2083.5
17.23	2069.0	2083.0
17.24	2066.0	2082.6
17.25	2091.0	2082.1
17.26	2096.0	2081.6
17.27	2098.0	2081.2
17.28	2097.0	2080.7
17.29	2085.0	2080.2
17.3	2116.0	2079.8
17.31	2169.0	2079.3
17.32	2177.0	2078.8
17.33	2166.0	2078.3
17.34	2101.0	2077.8
17.35	2055.0	2077.3
17.36	2062.0	2076.9
17.37	2060.0	2076.4
17.38	2076.0	2075.9
17.39	2119.0	2075.4
17.4	2123.0	2074.9
17.41	2065.0	2074.4
17.42	2059.0	2073.9
17.43	2094.0	2073.4
17.44	2111.0	2072.9
17.45	2124.0	2072.4
17.46	2107.0	2071.9
17.47	2070.0	2071.4
17.48	2078.0	2070.9
17.49	2101.0	2070.4
17.5	2129.0	2069.8
17.51	2148.0	2069.3
17.52	2105.0	2068.8
17.53	2098.0	2068.3
17.54	2120.0	2067.8
17.55	2101.0	2067.3
17.56	2078.0	2066.7
17.57	2076.0	2066.2
17.58	2091.0	2065.7
17.59	2103.0	2065.2
17.6	2129.0	2064.6
17.61	2128.0	2064.1
17.62	2119.0	2063.6
17.63	2130.0	2063.1
17.64	2100.0	2062.5
17.65	2065.0	2062.0
17.66	2064.0	2061.5
17.67	2096.0	2060.9
17.68	2093.0	2060.4
17.69	2061.0	2059.8
17.7	2056.0	2059.3
17.71	2051.0	2058.7
17.72	2057.0	2058.2
17.73	2068.0	2057.7
17.74	2061.0	2057.1
17.75	2040.0	2056.6
17.76	2044.0	2056.0
17.77	2076.0	2055.4
17.78	2075.0	2054.9
17.79	2096.0	2054.3
17.8	2119.0	2053.8
17.81	2131.0	2053.2
17.82	2117.0	2052.7
17.83	2056.0	2052.1
17.84	2044.0	2051.5
17.85	2056.0	2051.0
17.86	2076.0	2050.4
17.87	2063.0	2049.8
17.88	2024.0	2049.3
17.89	2081.0	2048.7
17.9	2133.0	2048.1
17.91	2098.0	2047.6
17.92	2062.0	2047.0
17.93	2087.0	2046.4
17.94	2108.0	2045.8
17.95	2100.0	2045.2
17.96	2113.0	2044.7
17.97	2131.0	2044.1
17.98	2129.0	2043.5
17.99	2099.0	2042.9
18.0	2084.0	2042.3
18.01	2100.0	2041.7
18.02	2105.0	2041.2
18.03	2114.0	2040.6
18.04	2105.0	2040.0
18.05	2056.0	2039.4
18.06	2059.0	2038.8
18.07	2111.0	2038.2
18.08	2153.0	2037.6
18.09	2149.0	2037.0
18.1	2098.0	2036.4
18.11	2078.0	2035.8
18.12	2099.0	2035.2
18.13	2077.0	2034.6
18.14	2042.0	2034.0
18.15	2047.0	2033.4
18.16	2043.0	2032.8
18.17	2026.0	2032.2
18.18	2042.0	2031.6
18.19	2055.0	2031.0
18.2	2033.0	2030.4
18.21	2041.0	2029.7
18.22	2062.0	2029.1
18.23	2090.0	2028.5
18.24	2079.0	2027.9
18.25	2071.0	2027.3
18.26	2085.0	2026.7
18.27	2094.0	2026.1
18.28	2095.0	2025.4
18.29	2112.0	2024.8
18.3	2120.0	2024.2
18.31	2070.0	2023.6
18.32	2029.0	2022.9
18.33	2051.0	2022.3
18.34	2102.0	2021.7
18.35	2111.0	2021.1
18.36	2082.0	2020.4
18.37	2039.0	2019.8
18.38	2034.0	2019.2
18.39	2087.0	2018.5
18.4	2096.0	2017.9
18.41	2055.0	2017.3
18.42	2051.0	2016.6
18.43	2060.0	2016.0
18.44	2078.0	2015.4
18.45	2089.0	2014.7
18.46	2087.0	2014.1
18.47	2102.0	2013.5
18.48	2097.0	2012.8
18.49	2105.0	2012.2
18.5	2109.0	2011.5
18.51	2118.0	2010.9
18.52	2132.0	2010.2
18.53	2095.0	2009.6
18.54	2039.0	2009.0
18.55	2047.0	2008.3
18.56	2055.0	2007.7
18.57	2065.0	2007.0
18.58	2057.0	2006.4
18.59	2036.0	2005.7
18.6	2060.0	2005.1
18.61	2062.0	2004.4
18.62	2039.0	2003.7
18.63	2022.0	2003.1
18.64	2038.0	2002.4
18.65	2057.0	2001.8
18.66	2045.0	2001.1
18.67	2035.0	2000.5
18.68	1994.0	1999.8
18.69	1984.0	1999.1
18.7	2024.0	1998.5
18.71	2058.0	1997.8
18.72	2074.0	1997.2
18.73	2062.0	1996.5
18.74	2036.0	1995.8
18.75	2055.0	1995.2
18.76	2049.0	1994.5
18.77	2030.0	1993.8
18.78	2041.0	1993.2
18.79	2031.0	1992.5
18.8	2017.0	1991.8
18.81	2019.0	1991.2
18.82	2042.0	1990.5
18.83	2038.0	1989.8
18.84	2033.0	1989.1
18.85	2033.0	1988.5
18.86	2052.0	1987.8
18.87	2033.0	1987.1
18.88	2015.0	1986.4
18.89	2009.0	1985.8
18.9	2006.0	1985.1
18.91	2012.0	1984.4
18.92	2015.0	1983.7
18.93	2019.0	1983.1
18.94	2014.0	1982.4
18.95	2039.0	1981.7
18.96	2083.0	1981.0
18.97	2025.0	1980.3
18.98	1998.0	1979.7
18.99	2009.0	1979.0
19.0	2015.0	1978.3
19.01	2027.0	1977.6
19.02	1996.0	1976.9
19.03	1978.0	1976.2
19.04	2015.0	1975.6
19.05	2057.0	1974.9
19.06	2058.0	1974.2
19.07	2045.0	1973.5
19.08	2033.0	1972.8
19.09	2030.0	1972.1
19.1	2044.0	1971.4
19.11	2015.0	1970.7
19.12	2000.0	1970.0
19.13	2000.0	1969.4
19.14	2014.0	1968.7
19.15	2017.0	1968.0
19.16	1988.0	1967.3
19.17	1974.0	1966.6
19.18	2022.0	1965.9
19.19	2002.0	1965.2
19.2	1990.0	1964.5
19.21	2040.0	1963.8
19.22	2050.0	1963.1
19.23	2037.0	1962.4
19.24	1991.0	1961.7
19.25	1960.0	1961.0
19.26	1994.0	1960.3
19.27	1978.0	1959.6
19.28	2007.0	1958.9
19.29	2016.0	1958.2
19.3	1975.0	1957.5
19.31	1950.0	1956.8
19.32	1978.0	1956.1
19.33	1993.0	1955.4
19.34	1981.0	1954.7
19.35	1982.0	1954.0
19.36	2033.0	1953.3
19.37	2014.0	1952.6
19.38	1996.0	1951.9
19.39	2007.0	1951.2
19.4	2011.0	1950.5
19.41	2029.0	1949.8
19.42	2024.0	1949.1
19.43	2033.0	1948.4
19.44	1981.0	1947.7
19.45	1990.0	1947.0
19.46	1992.0	1946.3
19.47	1968.0	1945.6
19.48	1989.0	1944.9
19.49	1988.0	1944.2
19.5	1953.0	1943.4
19.51	1951.0	1942.7
19.52	1980.0	1942.0
19.53	1975.0	1941.3
19.54	1956.0	1940.6
19.55	1982.0	1939.9
19.56	1993.0	1939.2
19.57	1983.0	1938.5
19.58	1983.0	1937.8
19.59	2001.0	1937.1
19.6	2005.0	1936.4
19.61	1993.0	1935.6
19.62	1949.0	1934.9
19.63	1924.0	1934.2
19.64	1954.0	1933.5
19.65	1998.0	1932.8
19.66	1969.0	1932.1
19.67	1923.0	1931.4
19.68	1931.0	1930.7
19.69	1945.0	1930.0
19.7	1942.0	1929.2
19.71	1970.0	1928.5
19.72	1979.0	1927.8
19.73	1980.0	1927.1
19.74	1974.0	1926.4
19.75	1956.0	1925.7
19.76	1945.0	1925.0
19.77	1950.0	1924.3
19.78	1916.0	1923.5
19.79	1907.0	1922.8
19.8	1941.0	1922.1
19.81	1933.0	1921.4
19.82	1969.0	1920.7
19.83	2002.0	1920.0
19.84	2042.0	1919.3
19.85	1980.0	1918.6
19.86	1925.0	1917.8
19.87	1951.0	1917.1
19.88	1939.0	1916.4
19.89	1985.0	1915.7
19.9	1990.0	1915.0
19.91	1981.0	1914.3
19.92	1988.0	1913.6
19.93	1932.0	1912.8
19.94	1943.0	1912.1
19.95	1940.0	1911.4
19.96	1960.0	1910.7
19.97	1956.0	1910.0
19.98	1956.0	1909.3
19.99	1906.0	1908.6
20.0	1871.0	1907.8
20.01	1905.0	1907.1
20.02	1938.0	1906.4
20.03	1956.0	1905.7
20.04	1893.0	1905.0
20.05	1929.0	1904.3
20.06	1965.0	1903.6
20.07	1919.0	1902.8
20.08	1905.0	1902.1
20.09	1923.0	1901.4
20.1	1944.0	1900.7
20.11	1897.0	1900.0
20.12	1909.0	1899.3
20.13	1911.0	1898.6
20.14	1932.0	1897.8
20.15	1947.0	1897.1
20.16	1902.0	1896.4
20.17	1932.0	1895.7
20.18	1965.0	1895.0
20.19	1923.0	1894.3
20.2	1940.0	1893.6
20.21	1911.0	1892.8
20.22	1906.0	1892.1
20.23	1911.0	1891.4
20.24	1930.0	1890.7
20.25	1960.0	1890.0
20.26	1949.0	1889.3
20.27	1930.0	1888.6
20.28	1943.0	1887.9
20.29	1943.0	1887.1
20.3	1871.0	1886.4
20.31	1926.0	1885.7
20.32	1945.0	1885.0
20.33	1911.0	1884.3
20.34	1928.0	1883.6
20.35	1910.0	1882.9
20.36	1921.0	1882.2
20.37	1892.0	1881.4
20.38	1879.0	1880.7
20.39	1890.0	1880.0
20.4	1881.0	1879.3
20.41	1887.0	1878.6
20.42	1906.0	1877.9
20.43	1872.0	1877.2
20.44	1835.0	1876.5
20.45	1812.0	1875.7
20.46	1865.0	1875.0
20.47	1879.0	1874.3
20.48	1870.0	1873.6
20.49	1910.0	1872.9
20.5	1934.0	1872.2
20.51	1919.0	1871.5
20.52	1939.0	1870.8
20.53	1847.0	1870.0
20.54	1859.0	1869.3
20.55	1868.0	1868.6
20.56	1863.0	1867.9
20.57	1890.0	1867.2
20.58	1932.0	1866.5
20.59	1938.0	1865.8
20.6	1911.0	1865.1
20.61	1892.0	1864.3
20.62	1885.0	1863.6
20.63	1865.0	1862.9
20.64	1872.0	1862.2
20.65	1880.0	1861.5
20.66	1903.0	1860.8
20.67	1899.0	1860.1
20.68	1839.0	1859.4
20.69	1866.0	1858.7
20.7	1871.0	1857.9
20.71	1871.0	1857.2
20.72	1817.0	1856.5
20.73	1826.0	1855.8
20.74	1807.0	1855.1
20.75	1832.0	1854.4
20.76	1829.0	1853.7
20.77	1818.0	1853.0
20.78	1836.0	1852.3
20.79	1857.0	1851.6
20.8	1868.0	1850.8
20.81	1862.0	1850.1
20.82	1855.0	1849.4
20.83	1873.0	1848.7
20.84	1924.0	1848.0
20.85	1875.0	1847.3
20.86	1855.0	1846.6
20.87	1866.0	1845.9
20.88	1823.0	1845.2
20.89	1845.0	1844.5
20.9	1860.0	1843.7
20.91	1845.0	1843.0
20.92	1846.0	1842.3
20.93	1814.0	1841.6
20.94	1780.0	1840.9
20.95	1795.0	1840.2
20.96	1794.0	1839.5
20.97	1809.0	1838.8
20.98	1869.0	1838.1
20.99	1869.0	1837.4
21.0	1877.0	1836.6
21.01	1869.0	1835.9
21.02	1818.0	1835.2
21.03	1802.0	1834.5
21.04	1794.0	1833.8
21.05	1831.0	1833.1
21.06	1827.0	1832.4
21.07	1771.0	1831.7
21.08	1774.0	1831.0
21.09	1811.0	1830.3
21.1	1806.0	1829.6
21.11	1798.0	1828.9
21.12	1829.0	1828.1
21.13	1793.0	1827.4
21.14	1779.0	1826.7
21.15	1847.0	1826.0
21.16	1853.0	1825.3
21.17	1795.0	1824.6
21.18	1825.0	1823.9
21.19	1878.0	1823.2
21.2	1854.0	1822.5
21.21	1863.0	1821.8
21.22	1823.0	1821.1
21.23	1823.0	1820.4
21.24	1850.0	1819.7
21.25	1811.0	1819.0
21.26	1797.0	1818.2
21.27	1813.0	1817.5
21.28	1772.0	1816.8
21.29	1736.0	1816.1
21.3	1783.0	1815.4
21.31	1801.0	1814.7
21.32	1791.0	1814.0
21.33	1789.0	1813.3
21.34	1798.0	1812.6
21.35	1771.0	1811.9
21.36	1747.0	1811.2
21.37	1788.0	1810.5
21.38	1781.0	1809.8
21.39	1786.0	1809.1
21.4	1762.0	1808.4
21.41	1772.0	1807.7
21.42	1737.0	1806.9
21.43	1725.0	1806.2
21.44	1714.0	1805.5
21.45	1762.0	1804.8
21.46	1765.0	1804.1
21.47	1782.0	1803.4
21.48	1723.0	1802.7
21.49	1757.0	1802.0
21.5	1772.0	1801.3
21.51	1811.0	1800.6
21.52	1830.0	1799.9
21.53	1805.0	1799.2
21.54	1802.0	1798.5
21.55	1793.0	1797.8
21.56	1759.0	1797.1
21.57	1689.0	1796.4
21.58	1718.0	1795.7
21.59	1742.0	1795.0
21.6	1733.0	1794.3
21.61	1782.0	1793.6
21.62	1783.0	1792.9
21.63	1739.0	1792.2
21.64	1763.0	1791.5
21.65	1783.0	1790.7
21.66	1771.0	1790.0
21.67	1757.0	1789.3
21.68	1754.0	1788.6
21.69	1774.0	1787.9
21.7	1749.0	1787.2
21.71	1759.0	1786.5
21.72	1783.0	1785.8
21.73	1747.0	1785.1
21.74	1740.0	1784.4
21.75	1744.0	1783.7
21.76	1710.0	1783.0
21.77	1703.0	1782.3
21.78	1733.0	1781.6
21.79	1736.0	1780.9
21.8	1749.0	1780.2
21.81	1732.0	1779.5
21.82	1760.0	1778.8
21.83	1736.0	1778.1
21.84	1762.0	1777.4
21.85	1745.0	1776.7
21.86	1753.0	1776.0
21.87	1779.0	1775.3
21.88	1751.0	1774.6
21.89	1735.0	1773.9
21.9	1736.0	1773.2
21.91	1755.0	1772.5
21.92	1759.0	1771.8
21.93	1756.0	1771.1
21.94	1743.0	1770.4
21.95	1684.0	1769.7
21.96	1662.0	1769.0
21.97	1710.0	1768.3
21.98	1720.0	1767.6
21.99	1741.0	1766.9
22.0	1763.0	1766.2
22.01	1726.0	1765.5
22.02	1753.0	1764.8
22.03	1749.0	1764.1
22.04	1729.0	1763.4
22.05	1749.0	1762.7
22.06	1770.0	1762.0
22.07	1758.0	1761.3
22.08	1774.0	1760.6
22.09	1703.0	1759.9
22.1	1704.0	1759.2
22.11	1718.0	1758.5
22.12	1682.0	1757.8
22.13	1735.0	1757.1
22.14	1703.0	1756.4
22.15	1684.0	1755.7
22.16	1712.0	1755.0
22.17	1748.0	1754.3
22.18	1743.0	1753.6
22.19	1709.0	1752.9
22.2	1716.0	1752.2
22.21	1713.0	1751.5
22.22	1721.0	1750.8
22.23	1710.0	1750.2
22.24	1671.0	1749.5
22.25	1726.0	1748.8
22.26	1735.0	1748.1
22.27	1700.0	1747.4
22.28	1683.0	1746.7
22.29	1714.0	1746.0
22.3	1685.0	1745.3
22.31	1686.0	1744.6
22.32	1685.0	1743.9
22.33	1656.0	1743.2
22.34	1669.0	1742.5
22.35	1716.0	1741.8
22.36	1712.0	1741.1
22.37	1720.0	1740.4
22.38	1724.0	1739.7
22.39	1731.0	1739.0
22.4	1685.0	1738.3
22.41	1695.0	1737.6
22.42	1642.0	1736.9
22.43	1686.0	1736.2
22.44	1708.0	1735.6
22.45	1742.0	1734.9
22.46	1708.0	1734.2
22.47	1668.0	1733.5
22.48	1633.0	1732.8
22.49	1675.0	1732.1
22.5	1671.0	1731.4
22.51	1653.0	1730.7
22.52	1697.0	1730.0
22.53	1688.0	1729.3
22.54	1633.0	1728.6
22.55	1675.0	1727.9
22.56	1664.0	1727.2
22.57	1659.0	1726.5
22.58	1689.0	1725.9
22.59	1687.0	1725.2
22.6	1722.0	1724.5
22.61	1656.0	1723.8
22.62	1698.0	1723.1
22.63	1714.0	1722.4
22.64	1666.0	1721.7
22.65	1632.0	1721.0
22.66	1630.0	1720.3
22.67	1644.0	1719.6
22.68	1649.0	1718.9
22.69	1660.0	1718.3
22.7	1714.0	1717.6
22.71	1737.0	1716.9
22.72	1691.0	1716.2
22.73	1678.0	1715.5
22.74	1660.0	1714.8
22.75	1682.0	1714.1
22.76	1732.0	1713.4
22.77	1696.0	1712.7
22.78	1642.0	1712.1
22.79	1618.0	1711.4
22.8	1655.0	1710.7
22.81	1669.0	1710.0
22.82	1666.0	1709.3
22.83	1723.0	1708.6
22.84	1665.0	1707.9
22.85	1626.0	1707.2
22.86	1692.0	1706.5
22.87	1683.0	1705.9
22.88	1725.0	1705.2
22.89	1727.0	1704.5
22.9	1690.0	1703.8
22.91	1677.0	1703.1
22.92	1635.0	1702.4
22.93	1640.0	1701.7
22.94	1684.0	1701.1
22.95	1669.0	1700.4
22.96	1612.0	1699.7
22.97	1629.0	1699.0
22.98	1671.0	1698.3
22.99	1669.0	1697.6
23.0	1669.0	1696.9
23.01	1681.0	1696.3
23.02	1654.0	1695.6
23.03	1643.0	1694.9
23.04	1651.0	1694.2
23.05	1641.0	1693.5
23.06	1696.0	1692.8
23.07	1679.0	1692.1
23.08	1642.0	1691.5
23.09	1683.0	1690.8
23.1	1694.0	1690.1
23.11	1696.0	1689.4
23.12	1724.0	1688.7
23.13	1714.0	1688.0
23.14	1730.0	1687.4
23.15	1659.0	1686.7
23.16	1648.0	1686.0
23.17	1689.0	1685.3
23.18	1696.0	1684.6
23.19	1714.0	1683.9
23.2	1685.0	1683.3
23.21	1677.0	1682.6
23.22	1707.0	1681.9
23.23	1691.0	1681.2
23.24	1732.0	1680.5
23.25	1742.0	1679.9
23.26	1724.0	1679.2
23.27	1692.0	1678.5
23.28	1714.0	1677.8
23.29	1722.0	1677.1
23.3	1734.0	1676.5
23.31	1679.0	1675.8
23.32	1667.0	1675.1
23.33	1698.0	1674.4
23.34	1724.0	1673.7
23.35	1701.0	1673.1
23.36	1670.0	1672.4
23.37	1714.0	1671.7
23.38	1735.0	1671.0
23.39	1730.0	1670.3
23.4	1719.0	1669.7
23.41	1723.0	1669.0
23.42	1715.0	1668.3
23.43	1741.0	1667.6
23.44	1685.0	1666.9
23.45	1732.0	1666.3
23.46	1734.0	1665.6
23.47	1790.0	1664.9
23.48	1771.0	1664.2
23.49	1738.0	1663.6
23.5	1776.0	1662.9
23.51	1810.0	1662.2
23.52	1785.0	1661.5
23.53	1788.0	1660.9
23.54	1764.0	1660.2
23.55	1731.0	1659.5
23.56	1796.0	1658.8
23.57	1768.0	1658.1
23.58	1767.0	1657.5
23.59	1791.0	1656.8
23.6	1788.0	1656.1
23.61	1807.0	1655.4
23.62	1792.0	1654.8
23.63	1797.0	1654.1
23.64	1761.0	1653.4
23.65	1765.0	1652.8
23.66	1770.0	1652.1
23.67	1755.0	1651.4
23.68	1758.0	1650.7
23.69	1736.0	1650.1
23.7	1765.0	1649.4
23.71	1774.0	1648.7
23.72	1792.0	1648.0
23.73	1784.0	1647.4
23.74	1768.0	1646.7
23.75	1754.0	1646.0
23.76	1747.0	1645.3
23.77	1722.0	1644.7
23.78	1722.0	1644.0
23.79	1739.0	1643.3
23.8	1716.0	1642.7
23.81	1672.0	1642.0
23.82	1653.0	1641.3
23.83	1703.0	1640.7
23.84	1693.0	1640.0
23.85	1693.0	1639.3
23.86	1703.0	1638.6
23.87	1685.0	1638.0
23.88	1696.0	1637.3
23.89	1721.0	1636.6
23.9	1674.0	1636.0
23.91	1652.0	1635.3
23.92	1623.0	1634.6
23.93	1667.0	1634.0
23.94	1668.0	1633.3
23.95	1656.0	1632.6
23.96	1633.0	1632.0
23.97	1660.0	1631.3
23.98	1660.0	1630.6
23.99	1648.0	1630.0
24.0	1646.0	1629.3
24.01	1615.0	1628.6
24.02	1635.0	1627.9
24.03	1615.0	1627.3
24.04	1672.0	1626.6
24.05	1646.0	1626.0
24.06	1657.0	1625.3
24.07	1627.0	1624.6
24.08	1597.0	1624.0
24.09	1638.0	1623.3
24.1	1642.0	1622.6
24.11	1642.0	1622.0
24.12	1649.0	1621.3
24.13	1604.0	1620.6
24.14	1592.0	1620.0
24.15	1633.0	1619.3
24.16	1604.0	1618.6
24.17	1585.0	1618.0
24.18	1620.0	1617.3
24.19	1611.0	1616.6
24.2	1611.0	1616.0
24.21	1640.0	1615.3
24.22	1589.0	1614.7
24.23	1554.0	1614.0
24.24	1598.0	1613.3
24.25	1632.0	1612.7
24.26	1601.0	1612.0
24.27	1659.0	1611.4
24.28	1598.0	1610.7
24.29	1611.0	1610.0
24.3	1621.0	1609.4
24.31	1620.0	1608.7
24.32	1599.0	1608.0
24.33	1613.0	1607.4
24.34	1667.0	1606.7
24.35	1667.0	1606.1
24.36	1628.0	1605.4
24.37	1579.0	1604.7
24.38	1614.0	1604.1
24.39	1599.0	1603.4
24.4	1621.0	1602.8
24.41	1636.0	1602.1
24.42	1620.0	1601.5
24.43	1583.0	1600.8
24.44	1564.0	1600.1
24.45	1582.0	1599.5
24.46	1561.0	1598.8
24.47	1552.0	1598.2
24.48	1557.0	1597.5
24.49	1563.0	1596.9
24.5	1574.0	1596.2
24.51	1587.0	1595.5
24.52	1568.0	1594.9
24.53	1573.0	1594.2
24.54	1581.0	1593.6
24.55	1612.0	1592.9
24.56	1585.0	1592.3
24.57	1566.0	1591.6
24.58	1520.0	1591.0
24.59	1553.0	1590.3
24.6	1611.0	1589.6
24.61	1600.0	1589.0
24.62	1569.0	1588.3
24.63	1563.0	1587.7
24.64	1570.0	1587.0
24.65	1587.0	1586.4
24.66	1576.0	1585.7
24.67	1589.0	1585.1
24.68	1603.0	1584.4
24.69	1594.0	1583.8
24.7	1562.0	1583.1
24.71	1595.0	1582.5
24.72	1595.0	1581.8
24.73	1586.0	1581.2
24.74	1592.0	1580.5
24.75	1580.0	1579.9
24.76	1589.0	1579.2
24.77	1534.0	1578.6
24.78	1531.0	1577.9
24.79	1554.0	1577.3
24.8	1557.0	1576.6
24.81	1580.0	1576.0
24.82	1601.0	1575.3
24.83	1613.0	1574.7
24.84	1626.0	1574.0
24.85	1647.0	1573.4
24.86	1613.0	1572.7
24.87	1592.0	1572.1
24.88	1579.0	1571.4
24.89	1599.0	1570.8
24.9	1605.0	1570.1
24.91	1599.0	1569.5
24.92	1626.0	1568.8
24.93	1622.0	1568.2
24.94	1603.0	1567.6
24.95	1606.0	1566.9
24.96	1615.0	1566.3
24.97	1575.0	1565.6
24.98	1547.0	1565.0
24.99	1555.0	1564.3
25.0	1579.0	1563.7
25.01	1594.0	1563.0
25.02	1607.0	1562.4
25.03	1632.0	1561.8
25.04	1615.0	1561.1
25.05	1630.0	1560.5
25.06	1652.0	1559.8
25.07	1634.0	1559.2
25.08	1595.0	1558.5
25.09	1577.0	1557.9
25.1	1608.0	1557.3
25.11	1616.0	1556.6
25.12	1602.0	1556.0
25.13	1592.0	1555.3
25.14	1612.0	1554.7
25.15	1594.0	1554.0
25.16	1600.0	1553.4
25.17	1628.0	1552.8
25.18	1650.0	1552.1
25.19	1663.0	1551.5
25.2	1634.0	1550.8
25.21	1628.0	1550.2
25.22	1645.0	1549.6
25.23	1674.0	1548.9
25.24	1677.0	1548.3
25.25	1643.0	1547.7
25.26	1622.0	1547.0
25.27	1630.0	1546.4
25.28	1655.0	1545.7
25.29	1688.0	1545.1
25.3	1691.0	1544.5
25.31	1702.0	1543.8
25.32	1725.0	1543.2
25.33	1707.0	1542.6
25.34	1669.0	1541.9
25.35	1666.0	1541.3
25.36	1722.0	1540.7
25.37	1769.0	1540.0
25.38	1732.0	1539.4
25.39	1743.0	1538.7
25.4	1739.0	1538.1
25.41	1732.0	1537.5
25.42	1715.0	1536.8
25.43	1725.0	1536.2
25.44	1759.0	1535.6
25.45	1780.0	1534.9
25.46	1779.0	1534.3
25.47	1786.0	1533.7
25.48	1796.0	1533.1
25.49	1826.0	1532.4
25.5	1857.0	1531.8
25.51	1821.0	1531.2
25.52	1754.0	1530.5
25.53	1789.0	1529.9
25.54	1857.0	1529.3
25.55	1878.0	1528.6
25.56	1874.0	1528.0
25.57	1854.0	1527.4
25.58	1888.0	1526.7
25.59	1905.0	1526.1
25.6	1911.0	1525.5
25.61	1914.0	1524.9
25.62	1965.0	1524.2
25.63	2022.0	1523.6
25.64	2002.0	1523.0
25.65	1973.0	1522.3
25.66	1986.0	1521.7
25.67	2007.0	1521.1
25.68	2049.0	1520.5
25.69	2089.0	1519.8
25.7	2105.0	1519.2
25.71	2154.0	1518.6
25.72	2182.0	1518.0
25.73	2208.0	1517.3
25.74	2202.0	1516.7
25.75	2232.0	1516.1
25.76	2307.0	1515.5
25.77	2350.0	1514.8
25.78	2335.0	1514.2
25.79	2328.0	1513.6
25.8	2356.0	1513.0
25.81	2336.0	1512.3
25.82	2320.0	1511.7
25.83	2309.0	1511.1
25.84	2297.0	1510.5
25.85	2283.0	1509.9
25.86	2303.0	1509.2
25.87	2289.0	1508.6
25.88	2221.0	1508.0
25.89	2174.0	1507.4
25.9	2158.0	1506.8
25.91	2127.0	1506.1
25.92	2123.0	1505.5
25.93	2092.0	1504.9
25.94	2019.0	1504.3
25.95	1990.0	1503.7
25.96	1989.0	1503.0
25.97	1984.0	1502.4
25.98	1948.0	1501.8
25.99	1970.0	1501.2
26.0	1983.0	1500.6
26.01	1961.0	1500.0
26.02	1952.0	1499.3
26.03	1903.0	1498.7
26.04	1873.0	1498.1
26.05	1880.0	1497.5
26.06	1846.0	1496.9
26.07	1828.0	1496.3
26.08	1837.0	1495.6
26.09	1825.0	1495.0
26.1	1843.0	1494.4
26.11	1841.0	1493.8
26.12	1811.0	1493.2
26.13	1767.0	1492.6
26.14	1744.0	1492.0
26.15	1763.0	1491.3
26.16	1796.0	1490.7
26.17	1803.0	1490.1
26.18	1774.0	1489.5
26.19	1751.0	1488.9
26.2	1742.0	1488.3
26.21	1718.0	1487.7
26.22	1693.0	1487.1
26.23	1720.0	1486.5
26.24	1715.0	1485.8
26.25	1680.0	1485.2
26.26	1642.0	1484.6
26.27	1632.0	1484.0
26.28	1640.0	1483.4
26.29	1662.0	1482.8
26.3	1664.0	1482.2
26.31	1670.0	1481.6
26.32	1687.0	1481.0
26.33	1688.0	1480.4
26.34	1677.0	1479.8
26.35	1660.0	1479.1
26.36	1643.0	1478.5
26.37	1604.0	1477.9
26.38	1600.0	1477.3
26.39	1614.0	1476.7
26.4	1618.0	1476.1
26.41	1621.0	1475.5
26.42	1622.0	1474.9
26.43	1594.0	1474.3
26.44	1577.0	1473.7
26.45	1613.0	1473.1
26.46	1634.0	1472.5
26.47	1610.0	1471.9
26.48	1574.0	1471.3
26.49	1556.0	1470.7
26.5	1573.0	1470.1
26.51	1564.0	1469.5
26.52	1559.0	1468.9
26.53	1574.0	1468.3
26.54	1567.0	1467.7
26.55	1540.0	1467.1
26.56	1540.0	1466.5
26.57	1545.0	1465.9
26.58	1527.0	1465.3
26.59	1513.0	1464.7
26.6	1522.0	1464.1
26.61	1541.0	1463.5
26.62	1552.0	1462.9
26.63	1553.0	1462.3
26.64	1568.0	1461.7
26.65	1568.0	1461.1
26.66	1548.0	1460.5
26.67	1533.0	1459.9
26.68	1517.0	1459.3
26.69	1524.0	1458.7
26.7	1502.0	1458.1
26.71	1475.0	1457.5
26.72	1513.0	1456.9
26.73	1529.0	1456.3
26.74	1491.0	1455.7
26.75	1472.0	1455.1
26.76	1487.0	1454.5
26.77	1496.0	1453.9
26.78	1482.0	1453.3
26.79	1480.0	1452.8
26.8	1505.0	1452.2
26.81	1524.0	1451.6
26.82	1522.0	1451.0
26.83	1487.0	1450.4
26.84	1470.0	1449.8
26.85	1509.0	1449.2
26.86	1539.0	1448.6
26.87	1501.0	1448.0
26.88	1466.0	1447.4
26.89	1433.0	1446.8
26.9	1410.0	1446.3
26.91	1432.0	1445.7
26.92	1493.0	1445.1
26.93	1527.0	1444.5
26.94	1496.0	1443.9
26.95	1465.0	1443.3
26.96	1461.0	1442.7
26.97	1457.0	1442.1
26.98	1429.0	1441.6
26.99	1406.0	1441.0
27.0	1436.0	1440.4
27.01	1478.0	1439.8
27.02	1480.0	1439.2
27.03	1456.0	1438.6
27.04	1438.0	1438.0
27.05	1459.0	1437.5
27.06	1470.0	1436.9
27.07	1477.0	1436.3
27.08	1487.0	1435.7
27.09	1476.0	1435.1
27.1	1482.0	1434.5
27.11	1488.0	1434.0
27.12	1468.0	1433.4
27.13	1430.0	1432.8
27.14	1426.0	1432.2
27.15	1442.0	1431.6
27.16	1472.0	1431.0
27.17	1497.0	1430.5
27.18	1473.0	1429.9
27.19	1433.0	1429.3
27.2	1422.0	1428.7
27.21	1447.0	1428.2
27.22	1448.0	1427.6
27.23	1435.0	1427.0
27.24	1448.0	1426.4
27.25	1449.0	1425.8
27.26	1443.0	1425.3
27.27	1440.0	1424.7
27.28	1428.0	1424.1
27.29	1420.0	1423.5
27.3	1442.0	1423.0
27.31	1489.0	1422.4
27.32	1491.0	1421.8
27.33	1460.0	1421.2
27.34	1435.0	1420.7
27.35	1422.0	1420.1
27.36	1422.0	1419.5
27.37	1408.0	1418.9
27.38	1405.0	1418.4
27.39	1422.0	1417.8
27.4	1425.0	1417.2
27.41	1453.0	1416.6
27.42	1479.0	1416.1
27.43	1472.0	1415.5
27.44	1471.0	1414.9
27.45	1461.0	1414.4
27.46	1453.0	1413.8
27.47	1445.0	1413.2
27.48	1413.0	1412.7
27.49	1383.0	1412.1
27.5	1428.0	1411.5
27.51	1477.0	1410.9
27.52	1479.0	1410.4
27.53	1455.0	1409.8
27.54	1429.0	1409.2
27.55	1440.0	1408.7
27.56	1426.0	1408.1
27.57	1425.0	1407.5
27.58	1414.0	1407.0
27.59	1386.0	1406.4
27.6	1417.0	1405.8
27.61	1473.0	1405.3
27.62	1480.0	1404.7
27.63	1471.0	1404.2
27.64	1468.0	1403.6
27.65	1438.0	1403.0
27.66	1441.0	1402.5
27.67	1459.0	1401.9
27.68	1457.0	1401.3
27.69	1443.0	1400.8
27.7	1441.0	1400.2
27.71	1464.0	1399.7
27.72	1457.0	1399.1
27.73	1418.0	1398.5
27.74	1422.0	1398.0
27.75	1442.0	1397.4
27.76	1439.0	1396.9
27.77	1452.0	1396.3
27.78	1432.0	1395.7
27.79	1415.0	1395.2
27.8	1416.0	1394.6
27.81	1412.0	1394.1
27.82	1433.0	1393.5
27.83	1450.0	1393.0
27.84	1461.0	1392.4
27.85	1473.0	1391.8
27.86	1450.0	1391.3
27.87	1455.0	1390.7
27.88	1437.0	1390.2
27.89	1391.0	1389.6
27.9	1391.0	1389.1
27.91	1391.0	1388.5
27.92	1411.0	1388.0
27.93	1444.0	1387.4
27.94	1457.0	1386.8
27.95	1458.0	1386.3
27.96	1441.0	1385.7
27.97	1427.0	1385.2
27.98	1414.0	1384.6
27.99	1416.0	1384.1
28.0	1480.0	1383.5
28.01	1491.0	1383.0
28.02	1458.0	1382.4
28.03	1463.0	1381.9
28.04	1494.0	1381.3
28.05	1492.0	1380.8
28.06	1462.0	1380.2
28.07	1421.0	1379.7
28.08	1392.0	1379.1
28.09	1389.0	1378.6
28.1	1406.0	1378.1
28.11	1447.0	1377.5
28.12	1458.0	1377.0
28.13	1434.0	1376.4
28.14	1418.0	1375.9
28.15	1432.0	1375.3
28.16	1459.0	1374.8
28.17	1459.0	1374.2
28.18	1399.0	1373.7
28.19	1393.0	1373.1
28.2	1438.0	1372.6
28.21	1463.0	1372.1
28.22	1493.0	1371.5
28.23	1484.0	1371.0
28.24	1473.0	1370.4
28.25	1482.0	1369.9
28.26	1486.0	1369.4
28.27	1478.0	1368.8
28.28	1478.0	1368.3
28.29	1495.0	1367.7
28.3	1474.0	1367.2
28.31	1441.0	1366.7
28.32	1440.0	1366.1
28.33	1436.0	1365.6
28.34	1435.0	1365.0
28.35	1485.0	1364.5
28.36	1504.0	1364.0
28.37	1491.0	1363.4
28.38	1478.0	1362.9
28.39	1489.0	1362.3
28.4	1462.0	1361.8
28.41	1467.0	1361.3
28.42	1514.0	1360.7
28.43	1547.0	1360.2
28.44	1533.0	1359.7
28.45	1504.0	1359.1
28.46	1515.0	1358.6
28.47	1527.0	1358.1
28.48	1520.0	1357.5
28.49	1521.0	1357.0
28.5	1527.0	1356.5
28.51	1519.0	1355.9
28.52	1514.0	1355.4
28.53	1508.0	1354.9
28.54	1527.0	1354.3
28.55	1559.0	1353.8
28.56	1544.0	1353.3
28.57	1513.0	1352.8
28.58	1533.0	1352.2
28.59	1542.0	1351.7
28.6	1527.0	1351.2
28.61	1535.0	1350.6
28.62	1537.0	1350.1
28.63	1546.0	1349.6
28.64	1550.0	1349.1
28.65	1569.0	1348.5
28.66	1596.0	1348.0
28.67	1559.0	1347.5
28.68	1536.0	1347.0
28.69	1561.0	1346.4
28.7	1560.0	1345.9
28.71	1566.0	1345.4
28.72	1592.0	1344.9
28.73	1602.0	1344.3
28.74	1590.0	1343.8
28.75	1596.0	1343.3
28.76	1625.0	1342.8
28.77	1615.0	1342.2
28.78	1586.0	1341.7
28.79	1592.0	1341.2
28.8	1619.0	1340.7
28.81	1653.0	1340.2
28.82	1632.0	1339.6
28.83	1600.0	1339.1
28.84	1611.0	1338.6
28.85	1614.0	1338.1
28.86	1613.0	1337.6
28.87	1660.0	1337.0
28.88	1666.0	1336.5
28.89	1644.0	1336.0
28.9	1679.0	1335.5
28.91	1724.0	1335.0
28.92	1717.0	1334.4
28.93	1695.0	1333.9
28.94	1655.0	1333.4
28.95	1651.0	1332.9
28.96	1688.0	1332.4
28.97	1697.0	1331.9
28.98	1663.0	1331.4
28.99	1633.0	1330.8
29.0	1641.0	1330.3
29.01	1637.0	1329.8
29.02	1618.0	1329.3
29.03	1611.0	1328.8
29.04	1606.0	1328.3
29.05	1598.0	1327.8
29.06	1611.0	1327.3
29.07	1622.0	1326.7
29.08	1624.0	1326.2
29.09	1623.0	1325.7
29.1	1608.0	1325.2
29.11	1578.0	1324.7
29.12	1546.0	1324.2
29.13	1548.0	1323.7
29.14	1543.0	1323.2
29.15	1541.0	1322.7
29.16	1550.0	1322.2
29.17	1548.0	1321.7
29.18	1536.0	1321.1
29.19	1493.0	1320.6
29.2	1469.0	1320.1
29.21	1488.0	1319.6
29.22	1486.0	1319.1
29.23	1492.0	1318.6
29.24	1480.0	1318.1
29.25	1492.0	1317.6
29.26	1497.0	1317.1
29.27	1492.0	1316.6
29.28	1492.0	1316.1
29.29	1497.0	1315.6
29.3	1530.0	1315.1
29.31	1526.0	1314.6
29.32	1497.0	1314.1
29.33	1485.0	1313.6
29.34	1463.0	1313.1
29.35	1437.0	1312.6
29.36	1420.0	1312.1
29.37	1415.0	1311.6
29.38	1447.0	1311.1
29.39	1457.0	1310.6
29.4	1419.0	1310.1
29.41	1431.0	1309.6
29.42	1460.0	1309.1
29.43	1464.0	1308.6
29.44	1442.0	1308.1
29.45	1427.0	1307.6
29.46	1400.0	1307.1
29.47	1375.0	1306.6
29.48	1405.0	1306.1
29.49	1400.0	1305.6
29.5	1408.0	1305.1
29.51	1403.0	1304.6
29.52	1403.0	1304.1
29.53	1409.0	1303.6
29.54	1412.0	1303.1
29.55	1396.0	1302.7
29.56	1397.0	1302.2
29.57	1434.0	1301.7
29.58	1410.0	1301.2
29.59	1396.0	1300.7
29.6	1391.0	1300.2
29.61	1337.0	1299.7
29.62	1325.0	1299.2
29.63	1369.0	1298.7
29.64	1395.0	1298.2
29.65	1386.0	1297.7
29.66	1347.0	1297.3
29.67	1344.0	1296.8
29.68	1341.0	1296.3
29.69	1344.0	1295.8
29.7	1359.0	1295.3
29.71	1392.0	1294.8
29.72	1386.0	1294.3
29.73	1354.0	1293.8
29.74	1332.0	1293.4
29.75	1341.0	1292.9
29.76	1368.0	1292.4
29.77	1374.0	1291.9
29.78	1339.0	1291.4
29.79	1323.0	1290.9
29.8	1336.0	1290.5
29.81	1329.0	1290.0
29.82	1338.0	1289.5
29.83	1335.0	1289.0
29.84	1333.0	1288.5
29.85	1343.0	1288.0
29.86	1336.0	1287.6
29.87	1332.0	1287.1
29.88	1304.0	1286.6
29.89	1307.0	1286.1
29.9	1315.0	1285.6
29.91	1326.0	1285.2
29.92	1337.0	1284.7
29.93	1353.0	1284.2
29.94	1333.0	1283.7
29.95	1320.0	1283.2
29.96	1321.0	1282.8
29.97	1351.0	1282.3
29.98	1346.0	1281.8
29.99	1319.0	1281.3
30.0	1290.0	1280.9
30.01	1310.0	1280.4
30.02	1293.0	1279.9
30.03	1304.0	1279.4
30.04	1330.0	1279.0
30.05	1306.0	1278.5
30.06	1303.0	1278.0
30.07	1324.0	1277.5
30.08	1322.0	1277.1
30.09	1323.0	1276.6
30.1	1294.0	1276.1
30.11	1324.0	1275.7
30.12	1341.0	1275.2
30.13	1322.0	1274.7
30.14	1316.0	1274.2
30.15	1315.0	1273.8
30.16	1327.0	1273.3
30.17	1348.0	1272.8
30.18	1338.0	1272.4
30.19	1330.0	1271.9
30.2	1302.0	1271.4
30.21	1322.0	1271.0
30.22	1365.0	1270.5
30.23	1306.0	1270.0
30.24	1313.0	1269.6
30.25	1312.0	1269.1
30.26	1315.0	1268.6
30.27	1332.0	1268.2
30.28	1330.0	1267.7
30.29	1316.0	1267.2
30.3	1318.0	1266.8
30.31	1329.0	1266.3
30.32	1314.0	1265.8
30.33	1361.0	1265.4
30.34	1309.0	1264.9
30.35	1278.0	1264.5
30.36	1285.0	1264.0
30.37	1286.0	1263.5
30.38	1300.0	1263.1
30.39	1337.0	1262.6
30.4	1351.0	1262.2
30.41	1277.0	1261.7
30.42	1247.0	1261.2
30.43	1317.0	1260.8
30.44	1326.0	1260.3
30.45	1322.0	1259.9
30.46	1299.0	1259.4
30.47	1303.0	1258.9
30.48	1319.0	1258.5
30.49	1305.0	1258.0
30.5	1268.0	1257.6
30.51	1266.0	1257.1
30.52	1321.0	1256.7
30.53	1317.0	1256.2
30.54	1312.0	1255.8
30.55	1294.0	1255.3
30.56	1310.0	1254.8
30.57	1294.0	1254.4
30.58	1243.0	1253.9
30.59	1254.0	1253.5
30.6	1306.0	1253.0
30.61	1298.0	1252.6
30.62	1271.0	1252.1
30.63	1290.0	1251.7
30.64	1316.0	1251.2
30.65	1324.0	1250.8
30.66	1313.0	1250.3
30.67	1263.0	1249.9
30.68	1264.0	1249.4
30.69	1301.0	1249.0
30.7	1262.0	1248.5
30.71	1256.0	1248.1
30.72	1278.0	1247.6
30.73	1303.0	1247.2
30.74	1274.0	1246.7
30.75	1258.0	1246.3
30.76	1263.0	1245.9
30.77	1251.0	1245.4
30.78	1248.0	1245.0
30.79	1248.0	1244.5
30.8	1282.0	1244.1
30.81	1313.0	1243.6
30.82	1295.0	1243.2
30.83	1247.0	1242.7
30.84	1240.0	1242.3
30.85	1255.0	1241.9
30.86	1290.0	1241.4
30.87	1300.0	1241.0
30.88	1274.0	1240.5
30.89	1262.0	1240.1
30.9	1289.0	1239.6
30.91	1292.0	1239.2
30.92	1272.0	1238.8
30.93	1262.0	1238.3
30.94	1273.0	1237.9
30.95	1251.0	1237.5
30.96	1259.0	1237.0
30.97	1219.0	1236.6
30.98	1205.0	1236.1
30.99	1232.0	1235.7
31.0	1279.0	1235.3
31.01	1284.0	1234.8
31.02	1249.0	1234.4
31.03	1232.0	1234.0
31.04	1236.0	1233.5
31.05	1282.0	1233.1
31.06	1283.0	1232.7
31.07	1217.0	1232.2
31.08	1203.0	1231.8
31.09	1209.0	1231.4
31.1	1232.0	1230.9
31.11	1250.0	1230.5
31.12	1249.0	1230.1
31.13	1258.0	1229.6
31.14	1269.0	1229.2
31.15	1264.0	1228.8
31.16	1259.0	1228.3
31.17	1230.0	1227.9
31.18	1225.0	1227.5
31.19	1241.0	1227.1
31.2	1246.0	1226.6
31.21	1253.0	1226.2
31.22	1242.0	1225.8
31.23	1247.0	1225.3
31.24	1247.0	1224.9
31.25	1229.0	1224.5
31.26	1247.0	1224.1
31.27	1226.0	1223.6
31.28	1225.0	1223.2
31.29	1200.0	1222.8
31.3	1262.0	1222.4
31.31	1252.0	1221.9
31.32	1290.0	1221.5
31.33	1287.0	1221.1
31.34	1241.0	1220.7
31.35	1231.0	1220.2
31.36	1272.0	1219.8
31.37	1302.0	1219.4
31.38	1290.0	1219.0
31.39	1227.0	1218.6
31.4	1197.0	1218.1
31.41	1193.0	1217.7
31.42	1224.0	1217.3
31.43	1218.0	1216.9
31.44	1200.0	1216.5
31.45	1214.0	1216.0
31.46	1247.0	1215.6
31.47	1249.0	1215.2
31.48	1288.0	1214.8
31.49	1217.0	1214.4
31.5	1258.0	1214.0
31.51	1235.0	1213.5
31.52	1215.0	1213.1
31.53	1247.0	1212.7
31.54	1292.0	1212.3
31.55	1256.0	1211.9
31.56	1258.0	1211.5
31.57	1271.0	1211.1
31.58	1257.0	1210.6
31.59	1220.0	1210.2
31.6	1217.0	1209.8
31.61	1222.0	1209.4
31.62	1229.0	1209.0
31.63	1225.0	1208.6
31.64	1230.0	1208.2
31.65	1225.0	1207.8
31.66	1222.0	1207.3
31.67	1268.0	1206.9
31.68	1269.0	1206.5
31.69	1250.0	1206.1
31.7	1226.0	1205.7
31.71	1253.0	1205.3
31.72	1234.0	1204.9
31.73	1232.0	1204.5
31.74	1253.0	1204.1
31.75	1233.0	1203.7
31.76	1246.0	1203.3
31.77	1255.0	1202.9
31.78	1248.0	1202.5
31.79	1273.0	1202.1
31.8	1249.0	1201.7
31.81	1211.0	1201.2
31.82	1174.0	1200.8
31.83	1206.0	1200.4
31.84	1252.0	1200.0
31.85	1242.0	1199.6
31.86	1241.0	1199.2
31.87	1245.0	1198.8
31.88	1252.0	1198.4
31.89	1234.0	1198.0
31.9	1257.0	1197.6
31.91	1272.0	1197.2
31.92	1286.0	1196.8
31.93	1327.0	1196.4
31.94	1279.0	1196.0
31.95	1308.0	1195.6
31.96	1250.0	1195.2
31.97	1265.0	1194.8
31.98	1262.0	1194.4
31.99	1253.0	1194.0
32.0	1272.0	1193.7
32.01	1272.0	1193.3
32.02	1282.0	1192.9
32.03	1288.0	1192.5
32.04	1300.0	1192.1
32.05	1303.0	1191.7
32.06	1302.0	1191.3
32.07	1254.0	1190.9
32.08	1256.0	1190.5
32.09	1295.0	1190.1
32.1	1306.0	1189.7
32.11	1269.0	1189.3
32.12	1239.0	1188.9
32.13	1255.0	1188.5
32.14	1310.0	1188.2
32.15	1301.0	1187.8
32.16	1311.0	1187.4
32.17	1285.0	1187.0
32.18	1317.0	1186.6
32.19	1288.0	1186.2
32.2	1321.0	1185.8
32.21	1345.0	1185.4
32.22	1321.0	1185.0
32.23	1343.0	1184.7
32.24	1336.0	1184.3
32.25	1367.0	1183.9
32.26	1348.0	1183.5
32.27	1320.0	1183.1
32.28	1314.0	1182.7
32.29	1365.0	1182.3
32.3	1370.0	1182.0
32.31	1360.0	1181.6
32.32	1360.0	1181.2
32.33	1363.0	1180.8
32.34	1408.0	1180.4
32.35	1389.0	1180.0
32.36	1416.0	1179.7
32.37	1370.0	1179.3
32.38	1383.0	1178.9
32.39	1417.0	1178.5
32.4	1384.0	1178.1
32.41	1368.0	1177.8
32.42	1348.0	1177.4
32.43	1371.0	1177.0
32.44	1404.0	1176.6
32.45	1455.0	1176.3
32.46	1473.0	1175.9
32.47	1486.0	1175.5
32.48	1436.0	1175.1
32.49	1458.0	1174.7
32.5	1516.0	1174.4
32.51	1480.0	1174.0
32.52	1472.0	1173.6
32.53	1440.0	1173.3
32.54	1454.0	1172.9
32.55	1522.0	1172.5
32.56	1554.0	1172.1
32.57	1499.0	1171.8
32.58	1485.0	1171.4
32.59	1509.0	1171.0
32.6	1558.0	1170.6
32.61	1573.0	1170.3
32.62	1581.0	1169.9
32.63	1587.0	1169.5
32.64	1577.0	1169.2
32.65	1556.0	1168.8
32.66	1610.0	1168.4
32.67	1604.0	1168.1
32.68	1591.0	1167.7
32.69	1597.0	1167.3
32.7	1608.0	1167.0
32.71	1649.0	1166.6
32.72	1604.0	1166.2
32.73	1624.0	1165.9
32.74	1631.0	1165.5
32.75	1576.0	1165.1
32.76	1616.0	1164.8
32.77	1628.0	1164.4
32.78	1570.0	1164.0
32.79	1548.0	1163.7
32.8	1546.0	1163.3
32.81	1542.0	1162.9
32.82	1531.0	1162.6
32.83	1538.0	1162.2
32.84	1544.0	1161.9
32.85	1535.0	1161.5
32.86	1487.0	1161.1
32.87	1493.0	1160.8
32.88	1477.0	1160.4
32.89	1495.0	1160.1
32.9	1464.0	1159.7
32.91	1448.0	1159.3
32.92	1466.0	1159.0
32.93	1416.0	1158.6
32.94	1423.0	1158.3
32.95	1422.0	1157.9
32.96	1373.0	1157.6
32.97	1389.0	1157.2
32.98	1428.0	1156.8
32.99	1443.0	1156.5
33.0	1451.0	1156.1
33.01	1416.0	1155.8
33.02	1412.0	1155.4
33.03	1346.0	1155.1
33.04	1349.0	1154.7
33.05	1358.0	1154.4
33.06	1362.0	1154.0
33.07	1350.0	1153.7
33.08	1333.0	1153.3
33.09	1319.0	1153.0
33.1	1357.0	1152.6
33.11	1348.0	1152.3
33.12	1359.0	1151.9
33.13	1332.0	1151.6
33.14	1301.0	1151.2
33.15	1328.0	1150.9
33.16	1327.0	1150.5
33.17	1310.0	1150.2
33.18	1337.0	1149.8
33.19	1335.0	1149.5
33.2	1328.0	1149.1
33.21	1297.0	1148.8
33.22	1305.0	1148.4
33.23	1294.0	1148.1
33.24	1299.0	1147.8
33.25	1354.0	1147.4
33.26	1358.0	1147.1
33.27	1340.0	1146.7
33.28	1308.0	1146.4
33.29	1312.0	1146.0
33.3	1302.0	1145.7
33.31	1287.0	1145.4
33.32	1318.0	1145.0
33.33	1314.0	1144.7
33.34	1298.0	1144.3
33.35	1278.0	1144.0
33.36	1247.0	1143.7
33.37	1250.0	1143.3
33.38	1296.0	1143.0
33.39	1297.0	1142.6
33.4	1254.0	1142.3
33.41	1266.0	1142.0
33.42	1237.0	1141.6
33.43	1242.0	1141.3
33.44	1212.0	1141.0
33.45	1229.0	1140.6
33.46	1242.0	1140.3
33.47	1256.0	1140.0
33.48	1240.0	1139.6
33.49	1206.0	1139.3
33.5	1222.0	1139.0
33.51	1251.0	1138.6
33.52	1237.0	1138.3
33.53	1226.0	1138.0
33.54	1210.0	1137.6
33.55	1196.0	1137.3
33.56	1232.0	1137.0
33.57	1265.0	1136.6
33.58	1257.0	1136.3
33.59	1261.0	1136.0
33.6	1232.0	1135.6
33.61	1233.0	1135.3
33.62	1196.0	1135.0
33.63	1192.0	1134.7
33.64	1177.0	1134.3
33.65	1187.0	1134.0
33.66	1213.0	1133.7
33.67	1171.0	1133.4
33.68	1149.0	1133.0
33.69	1182.0	1132.7
33.7	1166.0	1132.4
33.71	1162.0	1132.1
33.72	1147.0	1131.7
33.73	1165.0	1131.4
33.74	1195.0	1131.1
33.75	1171.0	1130.8
33.76	1168.0	1130.4
33.77	1192.0	1130.1
33.78	1187.0	1129.8
33.79	1171.0	1129.5
33.8	1127.0	1129.2
33.81	1166.0	1128.8
33.82	1173.0	1128.5
33.83	1173.0	1128.2
33.84	1172.0	1127.9
33.85	1155.0	1127.6
33.86	1166.0	1127.2
33.87	1130.0	1126.9
33.88	1145.0	1126.6
33.89	1162.0	1126.3
33.9	1191.0	1126.0
33.91	1175.0	1125.7
33.92	1144.0	1125.3
33.93	1157.0	1125.0
33.94	1175.0	1124.7
33.95	1161.0	1124.4
33.96	1160.0	1124.1
33.97	1166.0	1123.8
33.98	1148.0	1123.5
33.99	1125.0	1123.1
34.0	1127.0	1122.8
34.01	1143.0	1122.5
34.02	1177.0	1122.2
34.03	1175.0	1121.9
34.04	1120.0	1121.6
34.05	1123.0	1121.3
34.06	1159.0	1121.0
34.07	1140.0	1120.7
34.08	1139.0	1120.4
34.09	1167.0	1120.0
34.1	1142.0	1119.7
34.11	1124.0	1119.4
34.12	1126.0	1119.1
34.13	1155.0	1118.8
34.14	1144.0	1118.5
34.15	1123.0	1118.2
34.16	1106.0	1117.9
34.17	1150.0	1117.6
34.18	1202.0	1117.3
34.19	1184.0	1117.0
34.2	1136.0	1116.7
34.21	1124.0	1116.4
34.22	1139.0	1116.1
34.23	1164.0	1115.8
34.24	1147.0	1115.5
34.25	1145.0	1115.2
34.26	1149.0	1114.9
34.27	1165.0	1114.6
34.28	1159.0	1114.3
34.29	1127.0	1114.0
34.3	1144.0	1113.7
34.31	1168.0	1113.4
34.32	1174.0	1113.1
34.33	1183.0	1112.8
34.34	1157.0	1112.5
34.35	1124.0	1112.2
34.36	1110.0	1111.9
34.37	1142.0	1111.6
34.38	1140.0	1111.3
34.39	1118.0	1111.0
34.4	1123.0	1110.7
34.41	1124.0	1110.4
34.42	1140.0	1110.1
34.43	1128.0	1109.8
34.44	1127.0	1109.5
34.45	1118.0	1109.3
34.46	1139.0	1109.0
34.47	1148.0	1108.7
34.48	1137.0	1108.4
34.49	1121.0	1108.1
34.5	1108.0	1107.8
34.51	1110.0	1107.5
34.52	1124.0	1107.2
34.53	1140.0	1106.9
34.54	1108.0	1106.6
34.55	1162.0	1106.4
34.56	1172.0	1106.1
34.57	1149.0	1105.8
34.58	1117.0	1105.5
34.59	1111.0	1105.2
34.6	1119.0	1104.9
34.61	1142.0	1104.6
34.62	1133.0	1104.4
34.63	1110.0	1104.1
34.64	1136.0	1103.8
34.65	1157.0	1103.5
34.66	1165.0	1103.2
34.67	1159.0	1102.9
34.68	1146.0	1102.7
34.69	1160.0	1102.4
34.7	1130.0	1102.1
34.71	1096.0	1101.8
34.72	1136.0	1101.5
34.73	1122.0	1101.3
34.74	1129.0	1101.0
34.75	1152.0	1100.7
34.76	1172.0	1100.4
34.77	1159.0	1100.1
34.78	1149.0	1099.9
34.79	1130.0	1099.6
34.8	1107.0	1099.3
34.81	1121.0	1099.0
34.82	1151.0	1098.8
34.83	1157.0	1098.5
34.84	1174.0	1098.2
34.85	1195.0	1097.9
34.86	1170.0	1097.7
34.87	1116.0	1097.4
34.88	1115.0	1097.1
34.89	1128.0	1096.8
34.9	1133.0	1096.6
34.91	1126.0	1096.3
34.92	1111.0	1096.0
34.93	1123.0	1095.8
34.94	1135.0	1095.5
34.95	1138.0	1095.2
34.96	1133.0	1094.9
34.97	1125.0	1094.7
34.98	1132.0	1094.4
34.99	1150.0	1094.1
35.0	1136.0	1093.9
35.01	1135.0	1093.6
35.02	1137.0	1093.3
35.03	1133.0	1093.1
35.04	1145.0	1092.8
35.05	1151.0	1092.5
35.06	1143.0	1092.3
35.07	1141.0	1092.0
35.08	1117.0	1091.7
35.09	1105.0	1091.5
35.1	1114.0	1091.2
35.11	1127.0	1090.9
35.12	1164.0	1090.7
35.13	1165.0	1090.4
35.14	1140.0	1090.2
35.15	1124.0	1089.9
35.16	1123.0	1089.6
35.17	1125.0	1089.4
35.18	1128.0	1089.1
35.19	1133.0	1088.9
35.2	1119.0	1088.6
35.21	1116.0	1088.3
35.22	1122.0	1088.1
35.23	1137.0	1087.8
35.24	1133.0	1087.6
35.25	1113.0	1087.3
35.26	1125.0	1087.1
35.27	1131.0	1086.8
35.28	1109.0	1086.5
35.29	1104.0	1086.3
35.3	1072.0	1086.0
35.31	1096.0	1085.8
35.32	1104.0	1085.5
35.33	1104.0	1085.3
35.34	1139.0	1085.0
35.35	1149.0	1084.8
35.36	1140.0	1084.5
35.37	1101.0	1084.3
35.38	1092.0	1084.0
35.39	1139.0	1083.8
35.4	1154.0	1083.5
35.41	1161.0	1083.3
35.42	1165.0	1083.0
35.43	1138.0	1082.8
35.44	1100.0	1082.5
35.45	1094.0	1082.3
35.46	1117.0	1082.0
35.47	1114.0	1081.8
35.48	1090.0	1081.5
35.49	1117.0	1081.3
35.5	1139.0	1081.0
35.51	1113.0	1080.8
35.52	1098.0	1080.6
35.53	1124.0	1080.3
35.54	1134.0	1080.1
35.55	1118.0	1079.8
35.56	1124.0	1079.6
35.57	1142.0	1079.3
35.58	1159.0	1079.1
35.59	1132.0	1078.9
35.6	1115.0	1078.6
35.61	1104.0	1078.4
35.62	1114.0	1078.1
35.63	1126.0	1077.9
35.64	1108.0	1077.7
35.65	1105.0	1077.4
35.66	1100.0	1077.2
35.67	1095.0	1076.9
35.68	1128.0	1076.7
35.69	1157.0	1076.5
35.7	1129.0	1076.2
35.71	1115.0	1076.0
35.72	1123.0	1075.8
35.73	1138.0	1075.5
35.74	1134.0	1075.3
35.75	1121.0	1075.1
35.76	1121.0	1074.8
35.77	1140.0	1074.6
35.78	1156.0	1074.4
35.79	1120.0	1074.1
35.8	1086.0	1073.9
35.81	1100.0	1073.7
35.82	1102.0	1073.4
35.83	1115.0	1073.2
35.84	1124.0	1073.0
35.85	1107.0	1072.7
35.86	1105.0	1072.5
35.87	1095.0	1072.3
35.88	1089.0	1072.0
35.89	1113.0	1071.8
35.9	1136.0	1071.6
35.91	1152.0	1071.4
35.92	1124.0	1071.1
35.93	1102.0	1070.9
35.94	1115.0	1070.7
35.95	1139.0	1070.5
35.96	1138.0	1070.2
35.97	1115.0	1070.0
35.98	1120.0	1069.8
35.99	1113.0	1069.6
36.0	1098.0	1069.3
36.01	1095.0	1069.1
36.02	1098.0	1068.9
36.03	1105.0	1068.7
36.04	1112.0	1068.4
36.05	1127.0	1068.2
36.06	1135.0	1068.0
36.07	1104.0	1067.8
36.08	1077.0	1067.6
36.09	1085.0	1067.3
36.1	1093.0	1067.1
36.11	1104.0	1066.9
36.12	1099.0	1066.7
36.13	1089.0	1066.5
36.14	1096.0	1066.3
36.15	1106.0	1066.0
36.16	1108.0	1065.8
36.17	1115.0	1065.6
36.18	1128.0	1065.4
36.19	1133.0	1065.2
36.2	1129.0	1065.0
36.21	1113.0	1064.8
36.22	1114.0	1064.5
36.23	1151.0	1064.3
36.24	1149.0	1064.1
36.25	1128.0	1063.9
36.26	1123.0	1063.7
36.27	1136.0	1063.5
36.28	1164.0	1063.3
36.29	1164.0	1063.1
36.3	1131.0	1062.8
36.31	1100.0	1062.6
36.32	1103.0	1062.4
36.33	1093.0	1062.2
36.34	1100.0	1062.0
36.35	1131.0	1061.8
36.36	1139.0	1061.6
36.37	1153.0	1061.4
36.38	1150.0	1061.2
36.39	1133.0	1061.0
36.4	1154.0	1060.8
36.41	1166.0	1060.6
36.42	1171.0	1060.4
36.43	1165.0	1060.2
36.44	1137.0	1060.0
36.45	1139.0	1059.8
36.46	1157.0	1059.5
36.47	1145.0	1059.3
36.48	1124.0	1059.1
36.49	1131.0	1058.9
36.5	1137.0	1058.7
36.51	1127.0	1058.5
36.52	1116.0	1058.3
36.53	1135.0	1058.1
36.54	1146.0	1057.9
36.55	1138.0	1057.7
36.56	1160.0	1057.5
36.57	1163.0	1057.3
36.58	1142.0	1057.2
36.59	1129.0	1057.0
36.6	1146.0	1056.8
36.61	1157.0	1056.6
36.62	1114.0	1056.4
36.63	1087.0	1056.2
36.64	1098.0	1056.0
36.65	1117.0	1055.8
36.66	1134.0	1055.6
36.67	1136.0	1055.4
36.68	1123.0	1055.2
36.69	1114.0	1055.0
36.7	1111.0	1054.8
36.71	1104.0	1054.6
36.72	1095.0	1054.4
36.73	1103.0	1054.2
36.74	1133.0	1054.0
36.75	1148.0	1053.9
36.76	1148.0	1053.7
36.77	1149.0	1053.5
36.78	1141.0	1053.3
36.79	1129.0	1053.1
36.8	1141.0	1052.9
36.81	1142.0	1052.7
36.82	1120.0	1052.5
36.83	1132.0	1052.4
36.84	1145.0	1052.2
36.85	1135.0	1052.0
36.86	1175.0	1051.8
36.87	1188.0	1051.6
36.88	1156.0	1051.4
36.89	1181.0	1051.2
36.9	1211.0	1051.1
36.91	1188.0	1050.9
36.92	1176.0	1050.7
36.93	1181.0	1050.5
36.94	1147.0	1050.3
36.95	1120.0	1050.2
36.96	1146.0	1050.0
36.97	1176.0	1049.8
36.98	1191.0	1049.6
36.99	1187.0	1049.4
37.0	1171.0	1049.3
37.01	1166.0	1049.1
37.02	1169.0	1048.9
37.03	1158.0	1048.7
37.04	1144.0	1048.5
37.05	1152.0	1048.4
37.06	1168.0	1048.2
37.07	1145.0	1048.0
37.08	1135.0	1047.8
37.09	1187.0	1047.7
37.1	1195.0	1047.5
37.11	1165.0	1047.3
37.12	1155.0	1047.1
37.13	1143.0	1047.0
37.14	1137.0	1046.8
37.15	1149.0	1046.6
37.16	1165.0	1046.4
37.17	1177.0	1046.3
37.18	1186.0	1046.1
37.19	1182.0	1045.9
37.2	1170.0	1045.8
37.21	1156.0	1045.6
37.22	1170.0	1045.4
37.23	1179.0	1045.3
37.24	1195.0	1045.1
37.25	1223.0	1044.9
37.26	1205.0	1044.7
37.27	1181.0	1044.6
37.28	1184.0	1044.4
37.29	1186.0	1044.2
37.3	1219.0	1044.1
37.31	1231.0	1043.9
37.32	1209.0	1043.8
37.33	1187.0	1043.6
37.34	1188.0	1043.4
37.35	1213.0	1043.3
37.36	1231.0	1043.1
37.37	1249.0	1042.9
37.38	1250.0	1042.8
37.39	1234.0	1042.6
37.4	1226.0	1042.4
37.41	1229.0	1042.3
37.42	1237.0	1042.1
37.43	1264.0	1042.0
37.44	1274.0	1041.8
37.45	1284.0	1041.6
37.46	1282.0	1041.5
37.47	1270.0	1041.3
37.48	1275.0	1041.2
37.49	1273.0	1041.0
37.5	1278.0	1040.9
37.51	1287.0	1040.7
37.52	1283.0	1040.5
37.53	1289.0	1040.4
37.54	1333.0	1040.2
37.55	1386.0	1040.1
37.56	1392.0	1039.9
37.57	1391.0	1039.8
37.58	1388.0	1039.6
37.59	1358.0	1039.5
37.6	1354.0	1039.3
37.61	1378.0	1039.2
37.62	1381.0	1039.0
37.63	1393.0	1038.9
37.64	1378.0	1038.7
37.65	1376.0	1038.6
37.66	1381.0	1038.4
37.67	1397.0	1038.3
37.68	1422.0	1038.1
37.69	1439.0	1038.0
37.7	1439.0	1037.8
37.71	1427.0	1037.7
37.72	1401.0	1037.5
37.73	1358.0	1037.4
37.74	1368.0	1037.2
37.75	1377.0	1037.1
37.76	1414.0	1036.9
37.77	1425.0	1036.8
37.78	1395.0	1036.6
37.79	1371.0	1036.5
37.8	1369.0	1036.3
37.81	1362.0	1036.2
37.82	1380.0	1036.1
37.83	1379.0	1035.9
37.84	1375.0	1035.8
37.85	1350.0	1035.6
37.86	1310.0	1035.5
37.87	1320.0	1035.3
37.88	1354.0	1035.2
37.89	1359.0	1035.1
37.9	1359.0	1034.9
37.91	1392.0	1034.8
37.92	1357.0	1034.6
37.93	1314.0	1034.5
37.94	1300.0	1034.4
37.95	1323.0	1034.2
37.96	1355.0	1034.1
37.97	1366.0	1034.0
37.98	1362.0	1033.8
37.99	1362.0	1033.7
38.0	1317.0	1033.6
38.01	1293.0	1033.4
38.02	1284.0	1033.3
38.03	1260.0	1033.1
38.04	1271.0	1033.0
38.05	1269.0	1032.9
38.06	1279.0	1032.7
38.07	1295.0	1032.6
38.08	1296.0	1032.5
38.09	1274.0	1032.4
38.1	1254.0	1032.2
38.11	1252.0	1032.1
38.12	1275.0	1032.0
38.13	1250.0	1031.8
38.14	1247.0	1031.7
38.15	1255.0	1031.6
38.16	1285.0	1031.4
38.17	1261.0	1031.3
38.18	1235.0	1031.2
38.19	1238.0	1031.1
38.2	1242.0	1030.9
38.21	1251.0	1030.8
38.22	1248.0	1030.7
38.23	1242.0	1030.6
38.24	1191.0	1030.4
38.25	1184.0	1030.3
38.26	1246.0	1030.2
38.27	1284.0	1030.1
38.28	1259.0	1029.9
38.29	1235.0	1029.8
38.3	1228.0	1029.7
38.31	1201.0	1029.6
38.32	1214.0	1029.4
38.33	1235.0	1029.3
38.34	1227.0	1029.2
38.35	1207.0	1029.1
38.36	1204.0	1029.0
38.37	1178.0	1028.8
38.38	1167.0	1028.7
38.39	1166.0	1028.6
38.4	1176.0	1028.5
38.41	1185.0	1028.4
38.42	1208.0	1028.3
38.43	1193.0	1028.1
38.44	1159.0	1028.0
38.45	1134.0	1027.9
38.46	1146.0	1027.8
38.47	1169.0	1027.7
38.48	1157.0	1027.6
38.49	1147.0	1027.4
38.5	1174.0	1027.3
38.51	1181.0	1027.2
38.52	1180.0	1027.1
38.53	1198.0	1027.0
38.54	1197.0	1026.9
38.55	1211.0	1026.8
38.56	1225.0	1026.7
38.57	1190.0	1026.5
38.58	1155.0	1026.4
38.59	1123.0	1026.3
38.6	1112.0	1026.2
38.61	1123.0	1026.1
38.62	1145.0	1026.0
38.63	1184.0	1025.9
38.64	1187.0	1025.8
38.65	1152.0	1025.7
38.66	1127.0	1025.6
38.67	1158.0	1025.5
38.68	1144.0	1025.3
38.69	1144.0	1025.2
38.7	1158.0	1025.1
38.71	1129.0	1025.0
38.72	1111.0	1024.9
38.73	1106.0	1024.8
38.74	1126.0	1024.7
38.75	1162.0	1024.6
38.76	1144.0	1024.5
38.77	1145.0	1024.4
38.78	1138.0	1024.3
38.79	1139.0	1024.2
38.8	1122.0	1024.1
38.81	1130.0	1024.0
38.82	1117.0	1023.9
38.83	1102.0	1023.8
38.84	1126.0	1023.7
38.85	1117.0	1023.6
38.86	1094.0	1023.5
38.87	1152.0	1023.4
38.88	1157.0	1023.3
38.89	1150.0	1023.2
38.9	1141.0	1023.1
38.91	1139.0	1023.0
38.92	1139.0	1022.9
38.93	1143.0	1022.8
38.94	1121.0	1022.7
38.95	1098.0	1022.6
38.96	1090.0	1022.6
38.97	1094.0	1022.5
38.98	1114.0	1022.4
38.99	1116.0	1022.3
39.0	1148.0	1022.2
39.01	1150.0	1022.1
39.02	1180.0	1022.0
39.03	1175.0	1021.9
39.04	1134.0	1021.8
39.05	1091.0	1021.7
39.06	1101.0	1021.6
39.07	1145.0	1021.5
39.08	1150.0	1021.5
39.09	1141.0	1021.4
39.1	1141.0	1021.3
39.11	1132.0	1021.2
39.12	1137.0	1021.1
39.13	1136.0	1021.0
39.14	1140.0	1020.9
39.15	1126.0	1020.8
39.16	1114.0	1020.8
39.17	1170.0	1020.7
39.18	1159.0	1020.6
39.19	1155.0	1020.5
39.2	1137.0	1020.4
39.21	1134.0	1020.3
39.22	1122.0	1020.3
39.23	1124.0	1020.2
39.24	1136.0	1020.1
39.25	1123.0	1020.0
39.26	1105.0	1019.9
39.27	1142.0	1019.8
39.28	1163.0	1019.8
39.29	1156.0	1019.7
39.3	1152.0	1019.6
39.31	1153.0	1019.5
39.32	1160.0	1019.4
39.33	1156.0	1019.4
39.34	1162.0	1019.3
39.35	1143.0	1019.2
39.36	1145.0	1019.1
39.37	1120.0	1019.1
39.38	1122.0	1019.0
39.39	1108.0	1018.9
39.4	1106.0	1018.8
39.41	1147.0	1018.8
39.42	1135.0	1018.7
39.43	1138.0	1018.6
39.44	1134.0	1018.5
39.45	1145.0	1018.5
39.46	1161.0	1018.4
39.47	1151.0	1018.3
39.48	1167.0	1018.2
39.49	1193.0	1018.2
39.5	1199.0	1018.1
39.51	1162.0	1018.0
39.52	1149.0	1018.0
39.53	1137.0	1017.9
39.54	1172.0	1017.8
39.55	1190.0	1017.7
39.56	1163.0	1017.7
39.57	1167.0	1017.6
39.58	1196.0	1017.5
39.59	1214.0	1017.5
39.6	1189.0	1017.4
39.61	1201.0	1017.3
39.62	1197.0	1017.3
39.63	1200.0	1017.2
39.64	1169.0	1017.1
39.65	1144.0	1017.1
39.66	1164.0	1017.0
39.67	1191.0	1017.0
39.68	1184.0	1016.9
39.69	1191.0	1016.8
39.7	1186.0	1016.8
39.71	1166.0	1016.7
39.72	1163.0	1016.6
39.73	1174.0	1016.6
39.74	1173.0	1016.5
39.75	1174.0	1016.5
39.76	1181.0	1016.4
39.77	1218.0	1016.3
39.78	1217.0	1016.3
39.79	1185.0	1016.2
39.8	1130.0	1016.2
39.81	1128.0	1016.1
39.82	1145.0	1016.0
39.83	1126.0	1016.0
39.84	1110.0	1015.9
39.85	1144.0	1015.9
39.86	1147.0	1015.8
39.87	1144.0	1015.8
39.88	1168.0	1015.7
39.89	1155.0	1015.6
39.9	1140.0	1015.6
39.91	1140.0	1015.5
39.92	1163.0	1015.5
39.93	1162.0	1015.4
39.94	1130.0	1015.4
39.95	1116.0	1015.3
39.96	1110.0	1015.3
39.97	1135.0	1015.2
39.98	1164.0	1015.2
39.99	1136.0	1015.1
40.0	1127.0	1015.1
40.01	1106.0	1015.0
40.02	1132.0	1015.0
40.03	1105.0	1014.9
40.04	1080.0	1014.9
40.05	1093.0	1014.8
40.06	1089.0	1014.8
40.07	1091.0	1014.7
40.08	1116.0	1014.7
40.09	1100.0	1014.6
40.1	1114.0	1014.6
40.11	1125.0	1014.6
40.12	1099.0	1014.5
40.13	1080.0	1014.5
40.14	1091.0	1014.4
40.15	1134.0	1014.4
40.16	1124.0	1014.3
40.17	1144.0	1014.3
40.18	1139.0	1014.2
40.19	1117.0	1014.2
40.2	1118.0	1014.2
40.21	1143.0	1014.1
40.22	1167.0	1014.1
40.23	1135.0	1014.0
40.24	1085.0	1014.0
40.25	1104.0	1014.0
40.26	1089.0	1013.9
40.27	1119.0	1013.9
40.28	1105.0	1013.8
40.29	1108.0	1013.8
40.3	1085.0	1013.8
40.31	1075.0	1013.7
40.32	1101.0	1013.7
40.33	1115.0	1013.7
40.34	1108.0	1013.6
40.35	1127.0	1013.6
40.36	1143.0	1013.6
40.37	1180.0	1013.5
40.38	1145.0	1013.5
40.39	1136.0	1013.4
40.4	1110.0	1013.4
40.41	1107.0	1013.4
40.42	1100.0	1013.4
40.43	1089.0	1013.3
40.44	1119.0	1013.3
40.45	1109.0	1013.3
40.46	1098.0	1013.2
40.47	1081.0	1013.2
40.48	1086.0	1013.2
40.49	1094.0	1013.1
40.5	1086.0	1013.1
40.51	1062.0	1013.1
40.52	1064.0	1013.0
40.53	1099.0	1013.0
40.54	1143.0	1013.0
40.55	1139.0	1013.0
40.56	1123.0	1012.9
40.57	1098.0	1012.9
40.58	1087.0	1012.9
40.59	1122.0	1012.9
40.6	1110.0	1012.8
40.61	1115.0	1012.8
40.62	1107.0	1012.8
40.63	1122.0	1012.8
40.64	1144.0	1012.7
40.65	1127.0	1012.7
40.66	1091.0	1012.7
40.67	1084.0	1012.7
40.68	1068.0	1012.7
40.69	1094.0	1012.6
40.7	1142.0	1012.6
40.71	1126.0	1012.6
40.72	1100.0	1012.6
40.73	1118.0	1012.6
40.74	1121.0	1012.5
40.75	1075.0	1012.5
40.76	1087.0	1012.5
40.77	1102.0	1012.5
40.78	1104.0	1012.5
40.79	1093.0	1012.4
40.8	1098.0	1012.4
40.81	1113.0	1012.4
40.82	1091.0	1012.4
40.83	1043.0	1012.4
40.84	1105.0	1012.4
40.85	1133.0	1012.4
40.86	1149.0	1012.3
40.87	1133.0	1012.3
40.88	1130.0	1012.3
40.89	1106.0	1012.3
40.9	1129.0	1012.3
40.91	1124.0	1012.3
40.92	1136.0	1012.3
40.93	1133.0	1012.3
40.94	1130.0	1012.2
40.95	1148.0	1012.2
40.96	1158.0	1012.2
40.97	1160.0	1012.2
40.98	1130.0	1012.2
40.99	1121.0	1012.2
41.0	1131.0	1012.2
41.01	1138.0	1012.2
41.02	1151.0	1012.2
41.03	1112.0	1012.2
41.04	1170.0	1012.2
41.05	1184.0	1012.1
41.06	1139.0	1012.1
41.07	1061.0	1012.1
41.08	1124.0	1012.1
41.09	1103.0	1012.1
41.1	1119.0	1012.1
41.11	1150.0	1012.1
41.12	1155.0	1012.1
41.13	1167.0	1012.1
41.14	1122.0	1012.1
41.15	1112.0	1012.1
41.16	1158.0	1012.1
41.17	1173.0	1012.1
41.18	1163.0	1012.1
41.19	1119.0	1012.1
41.2	1143.0	1012.1
41.21	1168.0	1012.1
41.22	1147.0	1012.1
41.23	1128.0	1012.1
41.24	1175.0	1012.1
41.25	1164.0	1012.1
41.26	1125.0	1012.1
41.27	1104.0	1012.1
41.28	1143.0	1012.1
41.29	1206.0	1012.1
41.3	1181.0	1012.1
41.31	1184.0	1012.1
41.32	1137.0	1012.1
41.33	1146.0	1012.1
41.34	1181.0	1012.2
41.35	1141.0	1012.2
41.36	1155.0	1012.2
41.37	1129.0	1012.2
41.38	1144.0	1012.2
41.39	1182.0	1012.2
41.4	1171.0	1012.2
41.41	1141.0	1012.2
41.42	1165.0	1012.2
41.43	1191.0	1012.2
41.44	1194.0	1012.2
41.45	1176.0	1012.2
41.46	1153.0	1012.3
41.47	1169.0	1012.3
41.48	1188.0	1012.3
41.49	1182.0	1012.3
41.5	1132.0	1012.3
41.51	1148.0	1012.3
41.52	1084.0	1012.3
41.53	1118.0	1012.3
41.54	1163.0	1012.4
41.55	1164.0	1012.4
41.56	1116.0	1012.4
41.57	1123.0	1012.4
41.58	1158.0	1012.4
41.59	1145.0	1012.4
41.6	1102.0	1012.4
41.61	1113.0	1012.5
41.62	1126.0	1012.5
41.63	1103.0	1012.5
41.64	1106.0	1012.5
41.65	1110.0	1012.5
41.66	1098.0	1012.6
41.67	1043.0	1012.6
41.68	1053.0	1012.6
41.69	1104.0	1012.6
41.7	1122.0	1012.6
41.71	1090.0	1012.7
41.72	1098.0	1012.7
41.73	1081.0	1012.7
41.74	1102.0	1012.7
41.75	1088.0	1012.7
41.76	1064.0	1012.8
41.77	1115.0	1012.8
41.78	1109.0	1012.8
41.79	1091.0	1012.8
41.8	1083.0	1012.9
41.81	1090.0	1012.9
41.82	1121.0	1012.9
41.83	1119.0	1012.9
41.84	1102.0	1013.0
41.85	1080.0	1013.0
41.86	1076.0	1013.0
41.87	1044.0	1013.0
41.88	1050.0	1013.1
41.89	1094.0	1013.1
41.9	1085.0	1013.1
41.91	1098.0	1013.2
41.92	1104.0	1013.2
41.93	1104.0	1013.2
41.94	1038.0	1013.3
41.95	1058.0	1013.3
41.96	1076.0	1013.3
41.97	1112.0	1013.3
41.98	1063.0	1013.4
41.99	1062.0	1013.4
42.0	1093.0	1013.4
42.01	1056.0	1013.5
42.02	1076.0	1013.5
42.03	1127.0	1013.5
42.04	1088.0	1013.6
42.05	1067.0	1013.6
42.06	1047.0	1013.7
42.07	1065.0	1013.7
42.08	1063.0	1013.7
42.09	1061.0	1013.8
42.1	1079.0	1013.8
42.11	1099.0	1013.8
42.12	1075.0	1013.9
42.13	1050.0	1013.9
42.14	1040.0	1014.0
42.15	1100.0	1014.0
42.16	1083.0	1014.0
42.17	1098.0	1014.1
42.18	1083.0	1014.1
42.19	1105.0	1014.2
42.2	1085.0	1014.2
42.21	1075.0	1014.2
42.22	1050.0	1014.3
42.23	1056.0	1014.3
42.24	1079.0	1014.4
42.25	1038.0	1014.4
42.26	1023.0	1014.4
42.27	1029.0	1014.5
42.28	1046.0	1014.5
42.29	1081.0	1014.6
42.3	1079.0	1014.6
42.31	1074.0	1014.7
42.32	1045.0	1014.7
42.33	1042.0	1014.8
42.34	1028.0	1014.8
42.35	1056.0	1014.9
42.36	1045.0	1014.9
42.37	1057.0	1015.0
42.38	1069.0	1015.0
42.39	1039.0	1015.1
42.4	1076.0	1015.1
42.41	1079.0	1015.2
42.42	1057.0	1015.2
42.43	1092.0	1015.3
42.44	1064.0	1015.3
42.45	1015.0	1015.4
42.46	1035.0	1015.4
42.47	1044.0	1015.5
42.48	1009.0	1015.5
42.49	999.0	1015.6
42.5	1018.0	1015.6
42.51	1062.0	1015.7
42.52	1035.0	1015.7
42.53	1016.0	1015.8
42.54	1025.0	1015.8
42.55	1066.0	1015.9
42.56	1049.0	1015.9
42.57	1057.0	1016.0
42.58	1086.0	1016.1
42.59	1046.0	1016.1
42.6	1058.0	1016.2
42.61	1041.0	1016.2
42.62	1047.0	1016.3
42.63	1068.0	1016.3
42.64	1049.0	1016.4
42.65	1066.0	1016.5
42.66	1056.0	1016.5
42.67	1014.0	1016.6
42.68	1075.0	1016.6
42.69	1065.0	1016.7
42.7	1022.0	1016.8
42.71	1008.0	1016.8
42.72	1051.0	1016.9
42.73	1061.0	1017.0
42.74	1056.0	1017.0
42.75	1034.0	1017.1
42.76	1057.0	1017.1
42.77	1066.0	1017.2
42.78	1079.0	1017.3
42.79	1065.0	1017.3
42.8	1083.0	1017.4
42.81	1073.0	1017.5
42.82	1054.0	1017.5
42.83	1056.0	1017.6
42.84	1028.0	1017.7
42.85	1050.0	1017.7
42.86	1036.0	1017.8
42.87	1039.0	1017.9
42.88	1071.0	1017.9
42.89	1083.0	1018.0
42.9	1067.0	1018.1
42.91	1025.0	1018.1
42.92	1014.0	1018.2
42.93	1059.0	1018.3
42.94	1032.0	1018.4
42.95	1074.0	1018.4
42.96	1068.0	1018.5
42.97	1058.0	1018.6
42.98	1026.0	1018.6
42.99	1021.0	1018.7
43.0	1069.0	1018.8
43.01	1059.0	1018.9
43.02	1045.0	1018.9
43.03	1061.0	1019.0
43.04	1094.0	1019.1
43.05	1093.0	1019.1
43.06	1054.0	1019.2
43.07	1020.0	1019.3
43.08	1035.0	1019.4
43.09	1071.0	1019.4
43.1	1051.0	1019.5
43.11	1037.0	1019.6
43.12	1032.0	1019.7
43.13	1031.0	1019.7
43.14	1024.0	1019.8
43.15	1042.0	1019.9
43.16	1037.0	1020.0
43.17	1043.0	1020.1
43.18	1040.0	1020.1
43.19	1055.0	1020.2
43.2	1043.0	1020.3
43.21	1035.0	1020.4
43.22	1040.0	1020.4
43.23	1059.0	1020.5
43.24	1029.0	1020.6
43.25	1027.0	1020.7
43.26	1017.0	1020.8
43.27	1023.0	1020.8
43.28	1024.0	1020.9
43.29	1049.0	1021.0
43.3	1029.0	1021.1
43.31	1037.0	1021.2
43.32	1060.0	1021.3
43.33	1049.0	1021.3
43.34	1024.0	1021.4
43.35	1031.0	1021.5
43.36	1039.0	1021.6
43.37	1045.0	1021.7
43.38	1061.0	1021.8
43.39	1051.0	1021.8
43.4	1082.0	1021.9
43.41	1055.0	1022.0
43.42	1024.0	1022.1
43.43	1052.0	1022.2
43.44	1028.0	1022.3
43.45	1028.0	1022.4
43.46	1043.0	1022.4
43.47	1056.0	1022.5
43.48	1035.0	1022.6
43.49	1033.0	1022.7
43.5	1036.0	1022.8
43.51	1036.0	1022.9
43.52	1062.0	1023.0
43.53	1060.0	1023.1
43.54	1039.0	1023.1
43.55	1052.0	1023.2
43.56	1056.0	1023.3
43.57	1027.0	1023.4
43.58	1062.0	1023.5
43.59	1048.0	1023.6
43.6	1022.0	1023.7
43.61	1027.0	1023.8
43.62	1090.0	1023.9
43.63	1074.0	1023.9
43.64	1082.0	1024.0
43.65	1072.0	1024.1
43.66	1087.0	1024.2
43.67	1054.0	1024.3
43.68	1030.0	1024.4
43.69	1024.0	1024.5
43.7	1026.0	1024.6
43.71	1038.0	1024.7
43.72	1078.0	1024.8
43.73	1055.0	1024.9
43.74	1016.0	1025.0
43.75	1046.0	1025.1
43.76	1022.0	1025.2
43.77	1026.0	1025.2
43.78	1082.0	1025.3
43.79	1051.0	1025.4
43.8	1055.0	1025.5
43.81	1079.0	1025.6
43.82	1038.0	1025.7
43.83	1046.0	1025.8
43.84	1054.0	1025.9
43.85	1026.0	1026.0
43.86	1048.0	1026.1
43.87	1089.0	1026.2
43.88	1062.0	1026.3
43.89	1041.0	1026.4
43.9	1049.0	1026.5
43.91	1052.0	1026.6
43.92	1045.0	1026.7
43.93	1023.0	1026.8
43.94	1005.0	1026.9
43.95	1016.0	1027.0
43.96	1064.0	1027.1
43.97	1087.0	1027.2
43.98	1047.0	1027.3
43.99	1045.0	1027.4
44.0	1049.0	1027.5
44.01	1016.0	1027.6
44.02	1027.0	1027.7
44.03	1017.0	1027.8
44.04	1017.0	1027.9
44.05	1042.0	1028.0
44.06	1048.0	1028.1
44.07	1061.0	1028.2
44.08	1044.0	1028.3
44.09	1010.0	1028.4
44.1	1019.0	1028.5
44.11	1026.0	1028.6
44.12	1057.0	1028.7
44.13	1080.0	1028.8
44.14	1056.0	1028.9
44.15	1071.0	1029.0
44.16	1073.0	1029.1
44.17	1085.0	1029.2
44.18	1105.0	1029.3
44.19	1064.0	1029.4
44.2	1078.0	1029.5
44.21	1073.0	1029.6
44.22	1039.0	1029.7
44.23	1061.0	1029.8
44.24	1030.0	1029.9
44.25	1030.0	1030.0
44.26	1022.0	1030.1
44.27	1015.0	1030.2
44.28	994.0	1030.3
44.29	1034.0	1030.4
44.3	1042.0	1030.6
44.31	1046.0	1030.7
44.32	1054.0	1030.8
44.33	1049.0	1030.9
44.34	1052.0	1031.0
44.35	1040.0	1031.1
44.36	1064.0	1031.2
44.37	1082.0	1031.3
44.38	1088.0	1031.4
44.39	1066.0	1031.5
44.4	1047.0	1031.6
44.41	1028.0	1031.7
44.42	1034.0	1031.8
44.43	1061.0	1031.9
44.44	1073.0	1032.0
44.45	1058.0	1032.1
44.46	1064.0	1032.3
44.47	1042.0	1032.4
44.48	1009.0	1032.5
44.49	1041.0	1032.6
44.5	1061.0	1032.7
44.51	1044.0	1032.8
44.52	1025.0	1032.9
44.53	1029.0	1033.0
44.54	1042.0	1033.1
44.55	1013.0	1033.2
44.56	1005.0	1033.3
44.57	996.0	1033.5
44.58	1002.0	1033.6
44.59	1026.0	1033.7
44.6	1020.0	1033.8
44.61	1025.0	1033.9
44.62	1033.0	1034.0
44.63	1044.0	1034.1
44.64	1046.0	1034.2
44.65	1039.0	1034.3
44.66	1016.0	1034.4
44.67	1037.0	1034.5
44.68	1040.0	1034.7
44.69	1059.0	1034.8
44.7	1064.0	1034.9
44.71	1081.0	1035.0
44.72	1046.0	1035.1
44.73	1030.0	1035.2
44.74	1047.0	1035.3
44.75	1079.0	1035.4
44.76	1102.0	1035.5
44.77	1059.0	1035.7
44.78	1061.0	1035.8
44.79	1079.0	1035.9
44.8	1042.0	1036.0
44.81	1015.0	1036.1
44.82	1016.0	1036.2
44.83	1040.0	1036.3
44.84	1063.0	1036.4
44.85	1075.0	1036.6
44.86	1064.0	1036.7
44.87	1031.0	1036.8
44.88	1029.0	1036.9
44.89	1054.0	1037.0
44.9	1044.0	1037.1
44.91	1043.0	1037.2
44.92	1042.0	1037.3
44.93	1066.0	1037.5
44.94	1056.0	1037.6
44.95	1084.0	1037.7
44.96	1074.0	1037.8
44.97	1048.0	1037.9
44.98	1047.0	1038.0
44.99	1029.0	1038.1
45.0	1036.0	1038.3
45.01	1021.0	1038.4
45.02	1016.0	1038.5
45.03	1039.0	1038.6
45.04	1065.0	1038.7
45.05	1051.0	1038.8
45.06	1068.0	1038.9
45.07	1070.0	1039.0
45.08	1080.0	1039.2
45.09	1064.0	1039.3
45.1	1055.0	1039.4
45.11	1069.0	1039.5
45.12	1078.0	1039.6
45.13	1041.0	1039.7
45.14	1007.0	1039.9
45.15	1015.0	1040.0
45.16	1051.0	1040.1
45.17	1056.0	1040.2
45.18	1036.0	1040.3
45.19	1052.0	1040.4
45.2	1074.0	1040.5
45.21	1074.0	1040.7
45.22	1032.0	1040.8
45.23	1021.0	1040.9
45.24	1045.0	1041.0
45.25	1068.0	1041.1
45.26	1070.0	1041.2
45.27	1064.0	1041.3
45.28	1068.0	1041.5
45.29	1055.0	1041.6
45.3	1037.0	1041.7
45.31	1035.0	1041.8
45.32	1031.0	1041.9
45.33	1034.0	1042.0
45.34	1056.0	1042.2
45.35	1081.0	1042.3
45.36	1089.0	1042.4
45.37	1076.0	1042.5
45.38	1077.0	1042.6
45.39	1048.0	1042.7
45.4	1006.0	1042.8
45.41	1034.0	1043.0
45.42	1089.0	1043.1
45.43	1095.0	1043.2
45.44	1077.0	1043.3
45.45	1052.0	1043.4
45.46	1028.0	1043.5
45.47	1023.0	1043.7
45.48	1053.0	1043.8
45.49	1080.0	1043.9
45.5	1073.0	1044.0
45.51	1111.0	1044.1
45.52	1068.0	1044.2
45.53	1023.0	1044.4
45.54	1053.0	1044.5
45.55	1079.0	1044.6
45.56	1096.0	1044.7
45.57	1089.0	1044.8
45.58	1046.0	1044.9
45.59	1030.0	1045.0
45.6	1022.0	1045.2
45.61	1053.0	1045.3
45.62	1076.0	1045.4
45.63	1074.0	1045.5
45.64	1068.0	1045.6
45.65	1046.0	1045.7
45.66	1039.0	1045.9
45.67	1066.0	1046.0
45.68	1085.0	1046.1
45.69	1072.0	1046.2
45.7	1044.0	1046.3
45.71	1051.0	1046.4
45.72	1053.0	1046.6
45.73	1053.0	1046.7
45.74	1050.0	1046.8
45.75	1056.0	1046.9
45.76	1068.0	1047.0
45.77	1082.0	1047.1
45.78	1068.0	1047.2
45.79	1066.0	1047.4
45.8	1070.0	1047.5
45.81	1041.0	1047.6
45.82	1028.0	1047.7
45.83	1045.0	1047.8
45.84	1057.0	1047.9
45.85	1062.0	1048.1
45.86	1059.0	1048.2
45.87	1055.0	1048.3
45.88	1060.0	1048.4
45.89	1047.0	1048.5
45.9	1056.0	1048.6
45.91	1111.0	1048.7
45.92	1081.0	1048.9
45.93	1061.0	1049.0
45.94	1056.0	1049.1
45.95	1064.0	1049.2
45.96	1085.0	1049.3
45.97	1049.0	1049.4
45.98	1026.0	1049.5
45.99	1065.0	1049.7
46.0	1065.0	1049.8
46.01	1059.0	1049.9
46.02	1070.0	1050.0
46.03	1057.0	1050.1
46.04	1061.0	1050.2
46.05	1080.0	1050.3
46.06	1075.0	1050.5
46.07	1075.0	1050.6
46.08	1076.0	1050.7
46.09	1047.0	1050.8
46.1	1043.0	1050.9
46.11	1045.0	1051.0
46.12	1070.0	1051.1
46.13	1049.0	1051.3
46.14	1042.0	1051.4
46.15	1050.0	1051.5
46.16	1076.0	1051.6
46.17	1093.0	1051.7
46.18	1083.0	1051.8
46.19	1101.0	1051.9
46.2	1067.0	1052.1
46.21	1049.0	1052.2
46.22	1094.0	1052.3
46.23	1108.0	1052.4
46.24	1051.0	1052.5
46.25	1043.0	1052.6
46.26	1066.0	1052.7
46.27	1075.0	1052.8
46.28	1089.0	1053.0
46.29	1110.0	1053.1
46.3	1091.0	1053.2
46.31	1064.0	1053.3
46.32	1061.0	1053.4
46.33	1069.0	1053.5
46.34	1045.0	1053.6
46.35	1026.0	1053.7
46.36	1062.0	1053.9
46.37	1069.0	1054.0
46.38	1101.0	1054.1
46.39	1111.0	1054.2
46.4	1086.0	1054.3
46.41	1089.0	1054.4
46.42	1077.0	1054.5
46.43	1070.0	1054.6
46.44	1072.0	1054.7
46.45	1082.0	1054.9
46.46	1044.0	1055.0
46.47	1033.0	1055.1
46.48	1057.0	1055.2
46.49	1076.0	1055.3
46.5	1087.0	1055.4
46.51	1060.0	1055.5
46.52	1083.0	1055.6
46.53	1075.0	1055.7
46.54	1068.0	1055.8
46.55	1098.0	1056.0
46.56	1114.0	1056.1
46.57	1099.0	1056.2
46.58	1064.0	1056.3
46.59	1035.0	1056.4
46.6	1055.0	1056.5
46.61	1066.0	1056.6
46.62	1059.0	1056.7
46.63	1061.0	1056.8
46.64	1058.0	1056.9
46.65	1057.0	1057.0
46.66	1069.0	1057.2
46.67	1077.0	1057.3
46.68	1083.0	1057.4
46.69	1062.0	1057.5
46.7	1036.0	1057.6
46.71	1059.0	1057.7
46.72	1059.0	1057.8
46.73	1043.0	1057.9
46.74	1068.0	1058.0
46.75	1069.0	1058.1
46.76	1066.0	1058.2
46.77	1045.0	1058.3
46.78	1070.0	1058.4
46.79	1081.0	1058.5
46.8	1070.0	1058.7
46.81	1059.0	1058.8
46.82	1072.0	1058.9
46.83	1081.0	1059.0
46.84	1079.0	1059.1
46.85	1067.0	1059.2
46.86	1047.0	1059.3
46.87	1057.0	1059.4
46.88	1078.0	1059.5
46.89	1087.0	1059.6
46.9	1110.0	1059.7
46.91	1105.0	1059.8
46.92	1063.0	1059.9
46.93	1049.0	1060.0
46.94	1027.0	1060.1
46.95	1033.0	1060.2
46.96	1062.0	1060.3
46.97	1082.0	1060.4
46.98	1058.0	1060.5
46.99	1070.0	1060.6
47.0	1084.0	1060.7
47.01	1087.0	1060.8
47.02	1074.0	1060.9
47.03	1025.0	1061.0
47.04	1056.0	1061.1
47.05	1100.0	1061.2
47.06	1096.0	1061.3
47.07	1094.0	1061.4
47.08	1110.0	1061.5
47.09	1115.0	1061.6
47.1	1096.0	1061.7
47.11	1094.0	1061.8
47.12	1095.0	1061.9
47.13	1095.0	1062.0
47.14	1074.0	1062.1
47.15	1051.0	1062.2
47.16	1053.0	1062.3
47.17	1055.0	1062.4
47.18	1043.0	1062.5
47.19	1046.0	1062.6
47.2	1045.0	1062.7
47.21	1051.0	1062.8
47.22	1053.0	1062.9
47.23	1089.0	1063.0
47.24	1125.0	1063.1
47.25	1097.0	1063.2
47.26	1082.0	1063.3
47.27	1080.0	1063.4
47.28	1079.0	1063.5
47.29	1094.0	1063.6
47.3	1114.0	1063.7
47.31	1097.0	1063.8
47.32	1089.0	1063.9
47.33	1085.0	1064.0
47.34	1063.0	1064.1
47.35	1038.0	1064.2
47.36	1038.0	1064.3
47.37	1089.0	1064.4
47.38	1120.0	1064.5
47.39	1111.0	1064.6
47.4	1129.0	1064.7
47.41	1116.0	1064.8
47.42	1061.0	1064.9
47.43	1028.0	1065.0
47.44	1057.0	1065.1
47.45	1101.0	1065.1
47.46	1119.0	1065.2
47.47	1092.0	1065.3
47.48	1060.0	1065.4
47.49	1082.0	1065.5
47.5	1120.0	1065.6
47.51	1128.0	1065.7
47.52	1127.0	1065.8
47.53	1093.0	1065.9
47.54	1056.0	1066.0
47.55	1054.0	1066.1
47.56	1087.0	1066.2
47.57	1104.0	1066.3
47.58	1079.0	1066.4
47.59	1077.0	1066.5
47.6	1090.0	1066.5
47.61	1067.0	1066.6
47.62	1079.0	1066.7
47.63	1090.0	1066.8
47.64	1092.0	1066.9
47.65	1108.0	1067.0
47.66	1081.0	1067.1
47.67	1095.0	1067.2
47.68	1105.0	1067.3
47.69	1118.0	1067.4
47.7	1107.0	1067.5
47.71	1081.0	1067.5
47.72	1097.0	1067.6
47.73	1123.0	1067.7
47.74	1116.0	1067.8
47.75	1105.0	1067.9
47.76	1103.0	1068.0
47.77	1099.0	1068.1
47.78	1091.0	1068.2
47.79	1067.0	1068.3
47.8	1067.0	1068.3
47.81	1067.0	1068.4
47.82	1080.0	1068.5
47.83	1116.0	1068.6
47.84	1145.0	1068.7
47.85	1110.0	1068.8
47.86	1103.0	1068.9
47.87	1127.0	1069.0
47.88	1126.0	1069.0
47.89	1099.0	1069.1
47.9	1108.0	1069.2
47.91	1133.0	1069.3
47.92	1114.0	1069.4
47.93	1103.0	1069.5
47.94	1115.0	1069.6
47.95	1125.0	1069.7
47.96	1135.0	1069.7
47.97	1139.0	1069.8
47.98	1132.0	1069.9
47.99	1112.0	1070.0
48.0	1122.0	1070.1
48.01	1135.0	1070.2
48.02	1127.0	1070.3
48.03	1118.0	1070.3
48.04	1098.0	1070.4
48.05	1127.0	1070.5
48.06	1174.0	1070.6
48.07	1139.0	1070.7
48.08	1101.0	1070.8
48.09	1121.0	1070.9
48.1	1159.0	1070.9
48.11	1169.0	1071.0
48.12	1141.0	1071.1
48.13	1141.0	1071.2
48.14	1161.0	1071.3
48.15	1149.0	1071.4
48.16	1133.0	1071.4
48.17	1159.0	1071.5
48.18	1177.0	1071.6
48.19	1131.0	1071.7
48.2	1130.0	1071.8
48.21	1163.0	1071.9
48.22	1149.0	1071.9
48.23	1148.0	1072.0
48.24	1148.0	1072.1
48.25	1147.0	1072.2
48.26	1165.0	1072.3
48.27	1169.0	1072.4
48.28	1152.0	1072.4
48.29	1173.0	1072.5
48.3	1193.0	1072.6
48.31	1164.0	1072.7
48.32	1162.0	1072.8
48.33	1169.0	1072.8
48.34	1166.0	1072.9
48.35	1168.0	1073.0
48.36	1168.0	1073.1
48.37	1190.0	1073.2
48.38	1216.0	1073.3
48.39	1200.0	1073.3
48.4	1157.0	1073.4
48.41	1153.0	1073.5
48.42	1192.0	1073.6
48.43	1186.0	1073.7
48.44	1185.0	1073.7
48.45	1175.0	1073.8
48.46	1124.0	1073.9
48.47	1130.0	1074.0
48.48	1163.0	1074.1
48.49	1180.0	1074.1
48.5	1190.0	1074.2
48.51	1206.0	1074.3
48.52	1208.0	1074.4
48.53	1183.0	1074.5
48.54	1178.0	1074.5
48.55	1196.0	1074.6
48.56	1204.0	1074.7
48.57	1172.0	1074.8
48.58	1150.0	1074.9
48.59	1144.0	1074.9
48.6	1145.0	1075.0
48.61	1176.0	1075.1
48.62	1170.0	1075.2
48.63	1167.0	1075.2
48.64	1200.0	1075.3
48.65	1204.0	1075.4
48.66	1182.0	1075.5
48.67	1165.0	1075.6
48.68	1158.0	1075.6
48.69	1173.0	1075.7
48.7	1182.0	1075.8
48.71	1189.0	1075.9
48.72	1206.0	1075.9
48.73	1200.0	1076.0
48.74	1186.0	1076.1
48.75	1185.0	1076.2
48.76	1181.0	1076.3
48.77	1167.0	1076.3
48.78	1168.0	1076.4
48.79	1184.0	1076.5
48.8	1181.0	1076.6
48.81	1194.0	1076.6
48.82	1220.0	1076.7
48.83	1207.0	1076.8
48.84	1211.0	1076.9
48.85	1216.0	1076.9
48.86	1201.0	1077.0
48.87	1203.0	1077.1
48.88	1194.0	1077.2
48.89	1209.0	1077.2
48.9	1238.0	1077.3
48.91	1227.0	1077.4
48.92	1180.0	1077.5
48.93	1180.0	1077.6
48.94	1225.0	1077.6
48.95	1259.0	1077.7
48.96	1251.0	1077.8
48.97	1220.0	1077.9
48.98	1200.0	1077.9
48.99	1221.0	1078.0
49.0	1218.0	1078.1
49.01	1215.0	1078.2
49.02	1218.0	1078.2
49.03	1231.0	1078.3
49.04	1270.0	1078.4
49.05	1283.0	1078.5
49.06	1278.0	1078.5
49.07	1257.0	1078.6
49.08	1221.0	1078.7
49.09	1234.0	1078.8
49.1	1237.0	1078.8
49.11	1243.0	1078.9
49.12	1245.0	1079.0
49.13	1260.0	1079.0
49.14	1254.0	1079.1
49.15	1236.0	1079.2
49.16	1252.0	1079.3
49.17	1264.0	1079.3
49.18	1281.0	1079.4
49.19	1301.0	1079.5
49.2	1302.0	1079.6
49.21	1322.0	1079.6
49.22	1335.0	1079.7
49.23	1317.0	1079.8
49.24	1297.0	1079.9
49.25	1296.0	1079.9
49.26	1275.0	1080.0
49.27	1279.0	1080.1
49.28	1320.0	1080.2
49.29	1314.0	1080.2
49.3	1292.0	1080.3
49.31	1297.0	1080.4
49.32	1308.0	1080.4
49.33	1333.0	1080.5
49.34	1385.0	1080.6
49.35	1387.0	1080.7
49.36	1365.0	1080.7
49.37	1380.0	1080.8
49.38	1392.0	1080.9
49.39	1399.0	1081.0
49.4	1393.0	1081.0
49.41	1413.0	1081.1
49.42	1413.0	1081.2
49.43	1380.0	1081.2
49.44	1377.0	1081.3
49.45	1393.0	1081.4
49.46	1414.0	1081.5
49.47	1427.0	1081.5
49.48	1443.0	1081.6
49.49	1454.0	1081.7
49.5	1440.0	1081.7
49.51	1399.0	1081.8
49.52	1407.0	1081.9
49.53	1435.0	1082.0
49.54	1453.0	1082.0
49.55	1470.0	1082.1
49.56	1471.0	1082.2
49.57	1506.0	1082.2
49.58	1519.0	1082.3
49.59	1494.0	1082.4
49.6	1490.0	1082.5
49.61	1501.0	1082.5
49.62	1504.0	1082.6
49.63	1523.0	1082.7
49.64	1522.0	1082.7
49.65	1531.0	1082.8
49.66	1568.0	1082.9
49.67	1553.0	1083.0
49.68	1534.0	1083.0
49.69	1545.0	1083.1
49.7	1575.0	1083.2
49.71	1607.0	1083.2
49.72	1630.0	1083.3
49.73	1645.0	1083.4
49.74	1652.0	1083.5
49.75	1670.0	1083.5
49.76	1679.0	1083.6
49.77	1653.0	1083.7
49.78	1658.0	1083.7
49.79	1691.0	1083.8
49.8	1696.0	1083.9
49.81	1742.0	1084.0
49.82	1773.0	1084.0
49.83	1770.0	1084.1
49.84	1758.0	1084.2
49.85	1758.0	1084.2
49.86	1817.0	1084.3
49.87	1854.0	1084.4
49.88	1842.0	1084.4
49.89	1849.0	1084.5
49.9	1850.0	1084.6
49.91	1867.0	1084.7
49.92	1888.0	1084.7
49.93	1910.0	1084.8
49.94	1919.0	1084.9
49.95	1926.0	1084.9
49.96	1971.0	1085.0
49.97	2006.0	1085.1
49.98	2023.0	1085.2
49.99	2027.0	1085.2
50.0	2020.0	1085.3
50.01	2058.0	1085.4
50.02	2101.0	1085.4
50.03	2095.0	1085.5
50.04	2107.0	1085.6
50.05	2109.0	1085.6
50.06	2109.0	1085.7
50.07	2130.0	1085.8
50.08	2110.0	1085.9
50.09	2099.0	1085.9
50.1	2117.0	1086.0
50.11	2132.0	1086.1
50.12	2132.0	1086.1
50.13	2093.0	1086.2
50.14	2097.0	1086.3
50.15	2131.0	1086.3
50.16	2092.0	1086.4
50.17	2037.0	1086.5
50.18	2021.0	1086.6
50.19	2047.0	1086.6
50.2	2066.0	1086.7
50.21	2063.0	1086.8
50.22	2038.0	1086.8
50.23	2011.0	1086.9
50.24	2006.0	1087.0
50.25	1999.0	1087.0
50.26	1961.0	1087.1
50.27	1910.0	1087.2
50.28	1914.0	1087.2
50.29	1938.0	1087.3
50.3	1931.0	1087.4
50.31	1918.0	1087.5
50.32	1913.0	1087.5
50.33	1913.0	1087.6
50.34	1903.0	1087.7
50.35	1854.0	1087.7
50.36	1816.0	1087.8
50.37	1816.0	1087.9
50.38	1804.0	1087.9
50.39	1803.0	1088.0
50.4	1823.0	1088.1
50.41	1828.0	1088.2
50.42	1804.0	1088.2
50.43	1800.0	1088.3
50.44	1802.0	1088.4
50.45	1782.0	1088.4
50.46	1775.0	1088.5
50.47	1744.0	1088.6
50.48	1707.0	1088.6
50.49	1709.0	1088.7
50.5	1749.0	1088.8
50.51	1756.0	1088.9
50.52	1719.0	1088.9
50.53	1700.0	1089.0
50.54	1691.0	1089.1
50.55	1681.0	1089.1
50.56	1672.0	1089.2
50.57	1660.0	1089.3
50.58	1670.0	1089.3
50.59	1663.0	1089.4
50.6	1638.0	1089.5
50.61	1631.0	1089.6
50.62	1640.0	1089.6
50.63	1644.0	1089.7
50.64	1613.0	1089.8
50.65	1587.0	1089.8
50.66	1613.0	1089.9
50.67	1609.0	1090.0
50.68	1559.0	1090.0
50.69	1540.0	1090.1
50.7	1513.0	1090.2
50.71	1514.0	1090.3
50.72	1569.0	1090.3
50.73	1584.0	1090.4
50.74	1571.0	1090.5
50.75	1546.0	1090.5
50.76	1500.0	1090.6
50.77	1515.0	1090.7
50.78	1560.0	1090.7
50.79	1535.0	1090.8
50.8	1498.0	1090.9
50.81	1517.0	1091.0
50.82	1532.0	1091.0
50.83	1537.0	1091.1
50.84	1534.0	1091.2
50.85	1491.0	1091.2
50.86	1464.0	1091.3
50.87	1469.0	1091.4
50.88	1465.0	1091.5
50.89	1483.0	1091.5
50.9	1495.0	1091.6
50.91	1467.0	1091.7
50.92	1460.0	1091.7
50.93	1464.0	1091.8
50.94	1455.0	1091.9
50.95	1452.0	1091.9
50.96	1460.0	1092.0
50.97	1496.0	1092.1
50.98	1497.0	1092.2
50.99	1461.0	1092.2
51.0	1468.0	1092.3
51.01	1479.0	1092.4
51.02	1475.0	1092.4
51.03	1454.0	1092.5
51.04	1443.0	1092.6
51.05	1427.0	1092.7
51.06	1406.0	1092.7
51.07	1422.0	1092.8
51.08	1438.0	1092.9
51.09	1447.0	1092.9
51.1	1436.0	1093.0
51.11	1411.0	1093.1
51.12	1423.0	1093.2
51.13	1448.0	1093.2
51.14	1418.0	1093.3
51.15	1426.0	1093.4
51.16	1493.0	1093.4
51.17	1516.0	1093.5
51.18	1467.0	1093.6
51.19	1430.0	1093.7
51.2	1430.0	1093.7
51.21	1418.0	1093.8
51.22	1410.0	1093.9
51.23	1417.0	1094.0
51.24	1418.0	1094.0
51.25	1423.0	1094.1
51.26	1440.0	1094.2
51.27	1442.0	1094.2
51.28	1432.0	1094.3
51.29	1394.0	1094.4
51.3	1387.0	1094.5
51.31	1433.0	1094.5
51.32	1437.0	1094.6
51.33	1400.0	1094.7
51.34	1413.0	1094.7
51.35	1426.0	1094.8
51.36	1410.0	1094.9
51.37	1380.0	1095.0
51.38	1374.0	1095.0
51.39	1412.0	1095.1
51.4	1422.0	1095.2
51.41	1418.0	1095.3
51.42	1417.0	1095.3
51.43	1414.0	1095.4
51.44	1402.0	1095.5
51.45	1396.0	1095.6
51.46	1418.0	1095.6
51.47	1434.0	1095.7
51.48	1435.0	1095.8
51.49	1403.0	1095.8
51.5	1393.0	1095.9
51.51	1422.0	1096.0
51.52	1417.0	1096.1
51.53	1400.0	1096.1
51.54	1385.0	1096.2
51.55	1374.0	1096.3
51.56	1361.0	1096.4
51.57	1338.0	1096.4
51.58	1352.0	1096.5
51.59	1374.0	1096.6
51.6	1377.0	1096.7
51.61	1384.0	1096.7
51.62	1367.0	1096.8
51.63	1370.0	1096.9
51.64	1372.0	1097.0
51.65	1345.0	1097.0
51.66	1360.0	1097.1
51.67	1379.0	1097.2
51.68	1356.0	1097.3
51.69	1329.0	1097.3
51.7	1333.0	1097.4
51.71	1333.0	1097.5
51.72	1304.0	1097.6
51.73	1307.0	1097.6
51.74	1333.0	1097.7
51.75	1341.0	1097.8
51.76	1334.0	1097.9
51.77	1314.0	1097.9
51.78	1299.0	1098.0
51.79	1315.0	1098.1
51.8	1308.0	1098.2
51.81	1262.0	1098.2
51.82	1258.0	1098.3
51.83	1266.0	1098.4
51.84	1260.0	1098.5
51.85	1271.0	1098.5
51.86	1289.0	1098.6
51.87	1306.0	1098.7
51.88	1304.0	1098.8
51.89	1298.0	1098.9
51.9	1284.0	1098.9
51.91	1290.0	1099.0
51.92	1303.0	1099.1
51.93	1288.0	1099.2
51.94	1272.0	1099.2
51.95	1276.0	1099.3
51.96	1300.0	1099.4
51.97	1303.0	1099.5
51.98	1279.0	1099.5
51.99	1278.0	1099.6
52.0	1287.0	1099.7
52.01	1283.0	1099.8
52.02	1276.0	1099.9
52.03	1289.0	1099.9
52.04	1312.0	1100.0
52.05	1285.0	1100.1
52.06	1257.0	1100.2
52.07	1289.0	1100.3
52.08	1290.0	1100.3
52.09	1270.0	1100.4
52.1	1264.0	1100.5
52.11	1281.0	1100.6
52.12	1276.0	1100.6
52.13	1241.0	1100.7
52.14	1229.0	1100.8
52.15	1259.0	1100.9
52.16	1282.0	1101.0
52.17	1276.0	1101.0
52.18	1294.0	1101.1
52.19	1268.0	1101.2
52.2	1224.0	1101.3
52.21	1249.0	1101.4
52.22	1278.0	1101.4
52.23	1254.0	1101.5
52.24	1250.0	1101.6
52.25	1264.0	1101.7
52.26	1271.0	1101.8
52.27	1283.0	1101.8
52.28	1275.0	1101.9
52.29	1283.0	1102.0
52.3	1266.0	1102.1
52.31	1251.0	1102.2
52.32	1234.0	1102.2
52.33	1215.0	1102.3
52.34	1236.0	1102.4
52.35	1251.0	1102.5
52.36	1284.0	1102.6
52.37	1295.0	1102.7
52.38	1275.0	1102.7
52.39	1249.0	1102.8
52.4	1254.0	1102.9
52.41	1282.0	1103.0
52.42	1275.0	1103.1
52.43	1240.0	1103.2
52.44	1210.0	1103.2
52.45	1223.0	1103.3
52.46	1250.0	1103.4
52.47	1250.0	1103.5
52.48	1258.0	1103.6
52.49	1276.0	1103.6
52.5	1266.0	1103.7
52.51	1254.0	1103.8
52.52	1260.0	1103.9
52.53	1257.0	1104.0
52.54	1291.0	1104.1
52.55	1297.0	1104.2
52.56	1287.0	1104.2
52.57	1276.0	1104.3
52.58	1260.0	1104.4
52.59	1248.0	1104.5
52.6	1268.0	1104.6
52.61	1265.0	1104.7
52.62	1231.0	1104.7
52.63	1249.0	1104.8
52.64	1284.0	1104.9
52.65	1302.0	1105.0
52.66	1290.0	1105.1
52.67	1258.0	1105.2
52.68	1267.0	1105.3
52.69	1303.0	1105.3
52.7	1324.0	1105.4
52.71	1306.0	1105.5
52.72	1282.0	1105.6
52.73	1280.0	1105.7
52.74	1306.0	1105.8
52.75	1297.0	1105.9
52.76	1280.0	1105.9
52.77	1285.0	1106.0
52.78	1289.0	1106.1
52.79	1275.0	1106.2
52.8	1278.0	1106.3
52.81	1287.0	1106.4
52.82	1267.0	1106.5
52.83	1265.0	1106.6
52.84	1282.0	1106.6
52.85	1266.0	1106.7
52.86	1283.0	1106.8
52.87	1309.0	1106.9
52.88	1283.0	1107.0
52.89	1276.0	1107.1
52.9	1282.0	1107.2
52.91	1313.0	1107.3
52.92	1352.0	1107.4
52.93	1361.0	1107.4
52.94	1373.0	1107.5
52.95	1369.0	1107.6
52.96	1350.0	1107.7
52.97	1317.0	1107.8
52.98	1288.0	1107.9
52.99	1330.0	1108.0
53.0	1374.0	1108.1
53.01	1397.0	1108.2
53.02	1398.0	1108.3
53.03	1368.0	1108.3
53.04	1343.0	1108.4
53.05	1353.0	1108.5
53.06	1351.0	1108.6
53.07	1364.0	1108.7
53.08	1385.0	1108.8
53.09	1387.0	1108.9
53.1	1378.0	1109.0
53.11	1357.0	1109.1
53.12	1352.0	1109.2
53.13	1361.0	1109.3
53.14	1386.0	1109.4
53.15	1410.0	1109.4
53.16	1388.0	1109.5
53.17	1361.0	1109.6
53.18	1382.0	1109.7
53.19	1372.0	1109.8
53.2	1328.0	1109.9
53.21	1322.0	1110.0
53.22	1307.0	1110.1
53.23	1284.0	1110.2
53.24	1308.0	1110.3
53.25	1338.0	1110.4
53.26	1309.0	1110.5
53.27	1273.0	1110.6
53.28	1282.0	1110.7
53.29	1285.0	1110.8
53.3	1275.0	1110.9
53.31	1286.0	1111.0
53.32	1317.0	1111.1
53.33	1310.0	1111.1
53.34	1314.0	1111.2
53.35	1321.0	1111.3
53.36	1285.0	1111.4
53.37	1249.0	1111.5
53.38	1261.0	1111.6
53.39	1258.0	1111.7
53.4	1260.0	1111.8
53.41	1276.0	1111.9
53.42	1275.0	1112.0
53.43	1276.0	1112.1
53.44	1267.0	1112.2
53.45	1269.0	1112.3
53.46	1266.0	1112.4
53.47	1245.0	1112.5
53.48	1208.0	1112.6
53.49	1219.0	1112.7
53.5	1246.0	1112.8
53.51	1225.0	1112.9
53.52	1217.0	1113.0
53.53	1256.0	1113.1
53.54	1259.0	1113.2
53.55	1249.0	1113.3
53.56	1242.0	1113.4
53.57	1201.0	1113.5
53.58	1191.0	1113.6
53.59	1222.0	1113.7
53.6	1258.0	1113.8
53.61	1230.0	1113.9
53.62	1216.0	1114.0
53.63	1251.0	1114.1
53.64	1242.0	1114.2
53.65	1173.0	1114.3
53.66	1151.0	1114.4
53.67	1157.0	1114.5
53.68	1173.0	1114.6
53.69	1203.0	1114.7
53.7	1198.0	1114.8
53.71	1175.0	1114.9
53.72	1161.0	1115.0
53.73	1169.0	1115.1
53.74	1177.0	1115.2
53.75	1183.0	1115.3
53.76	1175.0	1115.4
53.77	1184.0	1115.5
53.78	1199.0	1115.7
53.79	1169.0	1115.8
53.8	1117.0	1115.9
53.81	1132.0	1116.0
53.82	1190.0	1116.1
53.83	1229.0	1116.2
53.84	1240.0	1116.3
53.85	1223.0	1116.4
53.86	1193.0	1116.5
53.87	1177.0	1116.6
53.88	1189.0	1116.7
53.89	1193.0	1116.8
53.9	1174.0	1116.9
53.91	1168.0	1117.0
53.92	1185.0	1117.1
53.93	1184.0	1117.2
53.94	1169.0	1117.3
53.95	1175.0	1117.5
53.96	1180.0	1117.6
53.97	1186.0	1117.7
53.98	1208.0	1117.8
53.99	1200.0	1117.9
54.0	1169.0	1118.0
54.01	1127.0	1118.1
54.02	1103.0	1118.2
54.03	1105.0	1118.3
54.04	1160.0	1118.4
54.05	1165.0	1118.5
54.06	1143.0	1118.7
54.07	1144.0	1118.8
54.08	1183.0	1118.9
54.09	1190.0	1119.0
54.1	1181.0	1119.1
54.11	1179.0	1119.2
54.12	1142.0	1119.3
54.13	1138.0	1119.4
54.14	1178.0	1119.5
54.15	1199.0	1119.7
54.16	1198.0	1119.8
54.17	1209.0	1119.9
54.18	1175.0	1120.0
54.19	1153.0	1120.1
54.2	1163.0	1120.2
54.21	1182.0	1120.3
54.22	1179.0	1120.4
54.23	1145.0	1120.6
54.24	1133.0	1120.7
54.25	1164.0	1120.8
54.26	1176.0	1120.9
54.27	1157.0	1121.0
54.28	1145.0	1121.1
54.29	1140.0	1121.2
54.3	1138.0	1121.4
54.31	1132.0	1121.5
54.32	1133.0	1121.6
54.33	1174.0	1121.7
54.34	1189.0	1121.8
54.35	1171.0	1121.9
54.36	1163.0	1122.0
54.37	1155.0	1122.2
54.38	1127.0	1122.3
54.39	1114.0	1122.4
54.4	1120.0	1122.5
54.41	1155.0	1122.6
54.42	1172.0	1122.7
54.43	1159.0	1122.9
54.44	1150.0	1123.0
54.45	1176.0	1123.1
54.46	1190.0	1123.2
54.47	1173.0	1123.3
54.48	1143.0	1123.5
54.49	1168.0	1123.6
54.5	1192.0	1123.7
54.51	1197.0	1123.8
54.52	1204.0	1123.9
54.53	1199.0	1124.0
54.54	1185.0	1124.2
54.55	1167.0	1124.3
54.56	1152.0	1124.4
54.57	1160.0	1124.5
54.58	1172.0	1124.6
54.59	1188.0	1124.8
54.6	1201.0	1124.9
54.61	1172.0	1125.0
54.62	1166.0	1125.1
54.63	1166.0	1125.2
54.64	1153.0	1125.4
54.65	1143.0	1125.5
54.66	1147.0	1125.6
54.67	1172.0	1125.7
54.68	1145.0	1125.8
54.69	1140.0	1126.0
54.7	1135.0	1126.1
54.71	1147.0	1126.2
54.72	1138.0	1126.3
54.73	1154.0	1126.4
54.74	1167.0	1126.6
54.75	1174.0	1126.7
54.76	1202.0	1126.8
54.77	1195.0	1126.9
54.78	1187.0	1127.0
54.79	1188.0	1127.2
54.8	1192.0	1127.3
54.81	1182.0	1127.4
54.82	1198.0	1127.5
54.83	1207.0	1127.7
54.84	1183.0	1127.8
54.85	1187.0	1127.9
54.86	1221.0	1128.0
54.87	1206.0	1128.1
54.88	1189.0	1128.3
54.89	1193.0	1128.4
54.9	1234.0	1128.5
54.91	1217.0	1128.6
54.92	1178.0	1128.8
54.93	1195.0	1128.9
54.94	1200.0	1129.0
54.95	1169.0	1129.1
54.96	1179.0	1129.3
54.97	1203.0	1129.4
54.98	1217.0	1129.5
54.99	1230.0	1129.6
55.0	1222.0	1129.8
55.01	1211.0	1129.9
55.02	1207.0	1130.0
55.03	1190.0	1130.1
55.04	1184.0	1130.2
55.05	1192.0	1130.4
55.06	1186.0	1130.5
55.07	1178.0	1130.6
55.08	1233.0	1130.7
55.09	1205.0	1130.9
55.1	1175.0	1131.0
55.11	1197.0	1131.1
55.12	1202.0	1131.2
55.13	1218.0	1131.4
55.14	1213.0	1131.5
55.15	1196.0	1131.6
55.16	1230.0	1131.7
55.17	1235.0	1131.9
55.18	1244.0	1132.0
55.19	1235.0	1132.1
55.2	1195.0	1132.2
55.21	1183.0	1132.4
55.22	1216.0	1132.5
55.23	1212.0	1132.6
55.24	1204.0	1132.7
55.25	1227.0	1132.9
55.26	1227.0	1133.0
55.27	1215.0	1133.1
55.28	1243.0	1133.2
55.29	1251.0	1133.4
55.3	1213.0	1133.5
55.31	1198.0	1133.6
55.32	1190.0	1133.7
55.33	1213.0	1133.9
55.34	1216.0	1134.0
55.35	1167.0	1134.1
55.36	1181.0	1134.2
55.37	1204.0	1134.4
55.38	1219.0	1134.5
55.39	1249.0	1134.6
55.4	1254.0	1134.8
55.41	1236.0	1134.9
55.42	1225.0	1135.0
55.43	1224.0	1135.1
55.44	1239.0	1135.3
55.45	1252.0	1135.4
55.46	1256.0	1135.5
55.47	1241.0	1135.6
55.48	1219.0	1135.8
55.49	1205.0	1135.9
55.5	1209.0	1136.0
55.51	1225.0	1136.1
55.52	1241.0	1136.3
55.53	1263.0	1136.4
55.54	1262.0	1136.5
55.55	1291.0	1136.6
55.56	1282.0	1136.8
55.57	1223.0	1136.9
55.58	1246.0	1137.0
55.59	1288.0	1137.1
55.6	1274.0	1137.3
55.61	1265.0	1137.4
55.62	1281.0	1137.5
55.63	1271.0	1137.7
55.64	1253.0	1137.8
55.65	1229.0	1137.9
55.66	1248.0	1138.0
55.67	1234.0	1138.2
55.68	1192.0	1138.3
55.69	1215.0	1138.4
55.7	1243.0	1138.5
55.71	1224.0	1138.7
55.72	1234.0	1138.8
55.73	1243.0	1138.9
55.74	1244.0	1139.0
55.75	1216.0	1139.2
55.76	1241.0	1139.3
55.77	1236.0	1139.4
55.78	1195.0	1139.5
55.79	1206.0	1139.7
55.8	1227.0	1139.8
55.81	1219.0	1139.9
55.82	1221.0	1140.0
55.83	1258.0	1140.2
55.84	1270.0	1140.3
55.85	1251.0	1140.4
55.86	1253.0	1140.6
55.87	1257.0	1140.7
55.88	1220.0	1140.8
55.89	1225.0	1140.9
55.9	1220.0	1141.1
55.91	1217.0	1141.2
55.92	1207.0	1141.3
55.93	1199.0	1141.4
55.94	1242.0	1141.6
55.95	1236.0	1141.7
55.96	1217.0	1141.8
55.97	1178.0	1141.9
55.98	1177.0	1142.1
55.99	1204.0	1142.2
56.0	1219.0	1142.3
56.01	1220.0	1142.4
56.02	1203.0	1142.6
56.03	1202.0	1142.7
56.04	1224.0	1142.8
56.05	1230.0	1142.9
56.06	1196.0	1143.1
56.07	1182.0	1143.2
56.08	1194.0	1143.3
56.09	1216.0	1143.4
56.1	1210.0	1143.6
56.11	1181.0	1143.7
56.12	1187.0	1143.8
56.13	1203.0	1143.9
56.14	1217.0	1144.0
56.15	1207.0	1144.2
56.16	1217.0	1144.3
56.17	1188.0	1144.4
56.18	1194.0	1144.5
56.19	1231.0	1144.7
56.2	1229.0	1144.8
56.21	1201.0	1144.9
56.22	1181.0	1145.0
56.23	1193.0	1145.2
56.24	1215.0	1145.3
56.25	1234.0	1145.4
56.26	1226.0	1145.5
56.27	1244.0	1145.7
56.28	1231.0	1145.8
56.29	1207.0	1145.9
56.3	1236.0	1146.0
56.31	1213.0	1146.1
56.32	1212.0	1146.3
56.33	1232.0	1146.4
56.34	1211.0	1146.5
56.35	1214.0	1146.6
56.36	1218.0	1146.8
56.37	1216.0	1146.9
56.38	1212.0	1147.0
56.39	1209.0	1147.1
56.4	1191.0	1147.2
56.41	1211.0	1147.4
56.42	1205.0	1147.5
56.43	1206.0	1147.6
56.44	1223.0	1147.7
56.45	1257.0	1147.8
56.46	1272.0	1148.0
56.47	1242.0	1148.1
56.48	1237.0	1148.2
56.49	1259.0	1148.3
56.5	1224.0	1148.5
56.51	1196.0	1148.6
56.52	1216.0	1148.7
56.53	1233.0	1148.8
56.54	1256.0	1148.9
56.55	1236.0	1149.1
56.56	1190.0	1149.2
56.57	1159.0	1149.3
56.58	1168.0	1149.4
56.59	1166.0	1149.5
56.6	1216.0	1149.6
56.61	1234.0	1149.8
56.62	1226.0	1149.9
56.63	1216.0	1150.0
56.64	1230.0	1150.1
56.65	1244.0	1150.2
56.66	1242.0	1150.4
56.67	1224.0	1150.5
56.68	1191.0	1150.6
56.69	1149.0	1150.7
56.7	1147.0	1150.8
56.71	1193.0	1150.9
56.72	1222.0	1151.1
56.73	1229.0	1151.2
56.74	1237.0	1151.3
56.75	1221.0	1151.4
56.76	1203.0	1151.5
56.77	1191.0	1151.7
56.78	1231.0	1151.8
56.79	1214.0	1151.9
56.8	1207.0	1152.0
56.81	1192.0	1152.1
56.82	1209.0	1152.2
56.83	1229.0	1152.3
56.84	1227.0	1152.5
56.85	1197.0	1152.6
56.86	1175.0	1152.7
56.87	1179.0	1152.8
56.88	1182.0	1152.9
56.89	1185.0	1153.0
56.9	1185.0	1153.2
56.91	1185.0	1153.3
56.92	1229.0	1153.4
56.93	1230.0	1153.5
56.94	1217.0	1153.6
56.95	1201.0	1153.7
56.96	1212.0	1153.8
56.97	1227.0	1153.9
56.98	1225.0	1154.1
56.99	1206.0	1154.2
57.0	1206.0	1154.3
57.01	1193.0	1154.4
57.02	1194.0	1154.5
57.03	1187.0	1154.6
57.04	1186.0	1154.7
57.05	1187.0	1154.8
57.06	1194.0	1155.0
57.07	1212.0	1155.1
57.08	1218.0	1155.2
57.09	1223.0	1155.3
57.1	1238.0	1155.4
57.11	1220.0	1155.5
57.12	1198.0	1155.6
57.13	1224.0	1155.7
57.14	1241.0	1155.8
57.15	1253.0	1155.9
57.16	1269.0	1156.1
57.17	1240.0	1156.2
57.18	1227.0	1156.3
57.19	1218.0	1156.4
57.2	1217.0	1156.5
57.21	1222.0	1156.6
57.22	1228.0	1156.7
57.23	1201.0	1156.8
57.24	1186.0	1156.9
57.25	1216.0	1157.0
57.26	1223.0	1157.1
57.27	1232.0	1157.2
57.28	1255.0	1157.3
57.29	1220.0	1157.5
57.3	1184.0	1157.6
57.31	1181.0	1157.7
57.32	1224.0	1157.8
57.33	1225.0	1157.9
57.34	1212.0	1158.0
57.35	1200.0	1158.1
57.36	1176.0	1158.2
57.37	1182.0	1158.3
57.38	1193.0	1158.4
57.39	1197.0	1158.5
57.4	1178.0	1158.6
57.41	1198.0	1158.7
57.42	1217.0	1158.8
57.43	1222.0	1158.9
57.44	1195.0	1159.0
57.45	1151.0	1159.1
57.46	1165.0	1159.2
57.47	1193.0	1159.3
57.48	1198.0	1159.4
57.49	1198.0	1159.5
57.5	1176.0	1159.6
57.51	1187.0	1159.7
57.52	1200.0	1159.8
57.53	1206.0	1159.9
57.54	1244.0	1160.0
57.55	1240.0	1160.1
57.56	1232.0	1160.2
57.57	1226.0	1160.3
57.58	1192.0	1160.4
57.59	1178.0	1160.5
57.6	1188.0	1160.6
57.61	1181.0	1160.7
57.62	1168.0	1160.8
57.63	1183.0	1160.9
57.64	1165.0	1161.0
57.65	1174.0	1161.1
57.66	1196.0	1161.2
57.67	1216.0	1161.3
57.68	1207.0	1161.4
57.69	1227.0	1161.5
57.7	1204.0	1161.6
57.71	1155.0	1161.7
57.72	1160.0	1161.8
57.73	1190.0	1161.9
57.74	1195.0	1162.0
57.75	1167.0	1162.1
57.76	1194.0	1162.2
57.77	1196.0	1162.2
57.78	1179.0	1162.3
57.79	1181.0	1162.4
57.8	1193.0	1162.5
57.81	1204.0	1162.6
57.82	1180.0	1162.7
57.83	1180.0	1162.8
57.84	1192.0	1162.9
57.85	1206.0	1163.0
57.86	1188.0	1163.1
57.87	1204.0	1163.2
57.88	1191.0	1163.3
57.89	1183.0	1163.3
57.9	1222.0	1163.4
57.91	1203.0	1163.5
57.92	1169.0	1163.6
57.93	1171.0	1163.7
57.94	1187.0	1163.8
57.95	1208.0	1163.9
57.96	1217.0	1164.0
57.97	1215.0	1164.1
57.98	1196.0	1164.1
57.99	1170.0	1164.2
58.0	1186.0	1164.3
58.01	1200.0	1164.4
58.02	1174.0	1164.5
58.03	1178.0	1164.6
58.04	1172.0	1164.7
58.05	1172.0	1164.7
58.06	1196.0	1164.8
58.07	1220.0	1164.9
58.08	1213.0	1165.0
58.09	1210.0	1165.1
58.1	1191.0	1165.2
58.11	1168.0	1165.2
58.12	1177.0	1165.3
58.13	1213.0	1165.4
58.14	1210.0	1165.5
58.15	1175.0	1165.6
58.16	1168.0	1165.6
58.17	1202.0	1165.7
58.18	1216.0	1165.8
58.19	1171.0	1165.9
58.2	1167.0	1166.0
58.21	1153.0	1166.0
58.22	1173.0	1166.1
58.23	1203.0	1166.2
58.24	1221.0	1166.3
58.25	1191.0	1166.4
58.26	1198.0	1166.4
58.27	1214.0	1166.5
58.28	1222.0	1166.6
58.29	1228.0	1166.7
58.3	1187.0	1166.7
58.31	1189.0	1166.8
58.32	1216.0	1166.9
58.33	1186.0	1167.0
58.34	1170.0	1167.0
58.35	1165.0	1167.1
58.36	1181.0	1167.2
58.37	1202.0	1167.3
58.38	1189.0	1167.3
58.39	1180.0	1167.4
58.4	1175.0	1167.5
58.41	1191.0	1167.5
58.42	1177.0	1167.6
58.43	1195.0	1167.7
58.44	1196.0	1167.8
58.45	1188.0	1167.8
58.46	1216.0	1167.9
58.47	1188.0	1168.0
58.48	1191.0	1168.0
58.49	1199.0	1168.1
58.5	1205.0	1168.2
58.51	1188.0	1168.2
58.52	1193.0	1168.3
58.53	1179.0	1168.4
58.54	1209.0	1168.4
58.55	1219.0	1168.5
58.56	1206.0	1168.6
58.57	1192.0	1168.6
58.58	1186.0	1168.7
58.59	1173.0	1168.8
58.6	1196.0	1168.8
58.61	1198.0	1168.9
58.62	1179.0	1169.0
58.63	1173.0	1169.0
58.64	1186.0	1169.1
58.65	1209.0	1169.2
58.66	1236.0	1169.2
58.67	1199.0	1169.3
58.68	1168.0	1169.3
58.69	1178.0	1169.4
58.7	1226.0	1169.5
58.71	1230.0	1169.5
58.72	1207.0	1169.6
58.73	1210.0	1169.7
58.74	1201.0	1169.7
58.75	1185.0	1169.8
58.76	1215.0	1169.8
58.77	1217.0	1169.9
58.78	1199.0	1169.9
58.79	1210.0	1170.0
58.8	1217.0	1170.1
58.81	1237.0	1170.1
58.82	1230.0	1170.2
58.83	1216.0	1170.2
58.84	1186.0	1170.3
58.85	1167.0	1170.4
58.86	1211.0	1170.4
58.87	1238.0	1170.5
58.88	1192.0	1170.5
58.89	1199.0	1170.6
58.9	1200.0	1170.6
58.91	1188.0	1170.7
58.92	1193.0	1170.7
58.93	1198.0	1170.8
58.94	1216.0	1170.8
58.95	1211.0	1170.9
58.96	1197.0	1171.0
58.97	1217.0	1171.0
58.98	1233.0	1171.1
58.99	1209.0	1171.1
59.0	1187.0	1171.2
59.01	1179.0	1171.2
59.02	1232.0	1171.3
59.03	1210.0	1171.3
59.04	1193.0	1171.4
59.05	1216.0	1171.4
59.06	1199.0	1171.5
59.07	1210.0	1171.5
59.08	1198.0	1171.6
59.09	1229.0	1171.6
59.1	1221.0	1171.7
59.11	1220.0	1171.7
59.12	1244.0	1171.8
59.13	1223.0	1171.8
59.14	1251.0	1171.9
59.15	1236.0	1171.9
59.16	1242.0	1171.9
59.17	1235.0	1172.0
59.18	1232.0	1172.0
59.19	1225.0	1172.1
59.2	1223.0	1172.1
59.21	1249.0	1172.2
59.22	1251.0	1172.2
59.23	1258.0	1172.3
59.24	1254.0	1172.3
59.25	1251.0	1172.3
59.26	1232.0	1172.4
59.27	1219.0	1172.4
59.28	1203.0	1172.5
59.29	1252.0	1172.5
59.3	1239.0	1172.6
59.31	1209.0	1172.6
59.32	1220.0	1172.6
59.33	1240.0	1172.7
59.34	1209.0	1172.7
59.35	1229.0	1172.8
59.36	1268.0	1172.8
59.37	1292.0	1172.8
59.38	1283.0	1172.9
59.39	1248.0	1172.9
59.4	1243.0	1173.0
59.41	1255.0	1173.0
59.42	1248.0	1173.0
59.43	1236.0	1173.1
59.44	1268.0	1173.1
59.45	1278.0	1173.2
59.46	1264.0	1173.2
59.47	1259.0	1173.2
59.48	1248.0	1173.3
59.49	1230.0	1173.3
59.5	1217.0	1173.3
59.51	1268.0	1173.4
59.52	1296.0	1173.4
59.53	1291.0	1173.4
59.54	1267.0	1173.5
59.55	1234.0	1173.5
59.56	1233.0	1173.5
59.57	1277.0	1173.6
59.58	1255.0	1173.6
59.59	1232.0	1173.6
59.6	1274.0	1173.7
59.61	1271.0	1173.7
59.62	1277.0	1173.7
59.63	1293.0	1173.8
59.64	1276.0	1173.8
59.65	1285.0	1173.8
59.66	1302.0	1173.9
59.67	1272.0	1173.9
59.68	1307.0	1173.9
59.69	1326.0	1174.0
59.7	1283.0	1174.0
59.71	1276.0	1174.0
59.72	1307.0	1174.1
59.73	1303.0	1174.1
59.74	1274.0	1174.1
59.75	1264.0	1174.1
59.76	1269.0	1174.2
59.77	1262.0	1174.2
59.78	1263.0	1174.2
59.79	1289.0	1174.3
59.8	1331.0	1174.3
59.81	1318.0	1174.3
59.82	1302.0	1174.3
59.83	1290.0	1174.4
59.84	1289.0	1174.4
59.85	1305.0	1174.4
59.86	1288.0	1174.4
59.87	1298.0	1174.5
59.88	1313.0	1174.5
59.89	1268.0	1174.5
59.9	1302.0	1174.5
59.91	1325.0	1174.6
59.92	1315.0	1174.6
59.93	1308.0	1174.6
59.94	1337.0	1174.6
59.95	1346.0	1174.7
59.96	1347.0	1174.7
59.97	1376.0	1174.7
59.98	1363.0	1174.7
59.99	1340.0	1174.7
60.0	1315.0	1174.8
60.01	1315.0	1174.8
60.02	1330.0	1174.8
60.03	1358.0	1174.8
60.04	1352.0	1174.8
60.05	1313.0	1174.9
60.06	1342.0	1174.9
60.07	1388.0	1174.9
60.08	1396.0	1174.9
60.09	1339.0	1174.9
60.1	1342.0	1175.0
60.11	1306.0	1175.0
60.12	1310.0	1175.0
60.13	1333.0	1175.0
60.14	1369.0	1175.0
60.15	1314.0	1175.0
60.16	1277.0	1175.1
60.17	1308.0	1175.1
60.18	1318.0	1175.1
60.19	1289.0	1175.1
60.2	1274.0	1175.1
60.21	1339.0	1175.1
60.22	1392.0	1175.2
60.23	1382.0	1175.2
60.24	1323.0	1175.2
60.25	1321.0	1175.2
60.26	1329.0	1175.2
60.27	1351.0	1175.2
60.28	1345.0	1175.2
60.29	1358.0	1175.3
60.3	1345.0	1175.3
60.31	1330.0	1175.3
60.32	1302.0	1175.3
60.33	1302.0	1175.3
60.34	1266.0	1175.3
60.35	1329.0	1175.3
60.36	1325.0	1175.3
60.37	1353.0	1175.4
60.38	1339.0	1175.4
60.39	1355.0	1175.4
60.4	1383.0	1175.4
60.41	1349.0	1175.4
60.42	1326.0	1175.4
60.43	1342.0	1175.4
60.44	1349.0	1175.4
60.45	1367.0	1175.4
60.46	1353.0	1175.4
60.47	1334.0	1175.5
60.48	1316.0	1175.5
60.49	1297.0	1175.5
60.5	1321.0	1175.5
60.51	1298.0	1175.5
60.52	1304.0	1175.5
60.53	1368.0	1175.5
60.54	1336.0	1175.5
60.55	1342.0	1175.5
60.56	1340.0	1175.5
60.57	1312.0	1175.5
60.58	1323.0	1175.5
60.59	1322.0	1175.5
60.6	1371.0	1175.5
60.61	1374.0	1175.6
60.62	1340.0	1175.6
60.63	1394.0	1175.6
60.64	1417.0	1175.6
60.65	1367.0	1175.6
60.66	1324.0	1175.6
60.67	1342.0	1175.6
60.68	1359.0	1175.6
60.69	1377.0	1175.6
60.7	1349.0	1175.6
60.71	1364.0	1175.6
60.72	1382.0	1175.6
60.73	1410.0	1175.6
60.74	1393.0	1175.6
60.75	1353.0	1175.6
60.76	1364.0	1175.6
60.77	1360.0	1175.6
60.78	1350.0	1175.6
60.79	1333.0	1175.6
60.8	1393.0	1175.6
60.81	1366.0	1175.6
60.82	1339.0	1175.6
60.83	1309.0	1175.6
60.84	1334.0	1175.6
60.85	1364.0	1175.6
60.86	1328.0	1175.6
60.87	1341.0	1175.6
60.88	1342.0	1175.6
60.89	1357.0	1175.6
60.9	1371.0	1175.6
60.91	1355.0	1175.6
60.92	1387.0	1175.6
60.93	1365.0	1175.6
60.94	1339.0	1175.6
60.95	1336.0	1175.6
60.96	1350.0	1175.6
60.97	1331.0	1175.6
60.98	1386.0	1175.6
60.99	1370.0	1175.6
61.0	1334.0	1175.6
61.01	1358.0	1175.6
61.02	1351.0	1175.5
61.03	1334.0	1175.5
61.04	1350.0	1175.5
61.05	1387.0	1175.5
61.06	1353.0	1175.5
61.07	1361.0	1175.5
61.08	1369.0	1175.5
61.09	1361.0	1175.5
61.1	1346.0	1175.5
61.11	1366.0	1175.5
61.12	1350.0	1175.5
61.13	1318.0	1175.5
61.14	1302.0	1175.5
61.15	1313.0	1175.5
61.16	1294.0	1175.5
61.17	1305.0	1175.4
61.18	1335.0	1175.4
61.19	1388.0	1175.4
61.2	1353.0	1175.4
61.21	1329.0	1175.4
61.22	1320.0	1175.4
61.23	1337.0	1175.4
61.24	1357.0	1175.4
61.25	1361.0	1175.4
61.26	1340.0	1175.4
61.27	1329.0	1175.4
61.28	1329.0	1175.3
61.29	1363.0	1175.3
61.3	1346.0	1175.3
61.31	1325.0	1175.3
61.32	1335.0	1175.3
61.33	1303.0	1175.3
61.34	1314.0	1175.3
61.35	1330.0	1175.3
61.36	1364.0	1175.2
61.37	1374.0	1175.2
61.38	1367.0	1175.2
61.39	1299.0	1175.2
61.4	1282.0	1175.2
61.41	1370.0	1175.2
61.42	1392.0	1175.2
61.43	1335.0	1175.2
61.44	1323.0	1175.1
61.45	1330.0	1175.1
61.46	1315.0	1175.1
61.47	1320.0	1175.1
61.48	1335.0	1175.1
61.49	1329.0	1175.1
61.5	1349.0	1175.1
61.51	1335.0	1175.0
61.52	1301.0	1175.0
61.53	1341.0	1175.0
61.54	1345.0	1175.0
61.55	1326.0	1175.0
61.56	1316.0	1175.0
61.57	1320.0	1174.9
61.58	1375.0	1174.9
61.59	1364.0	1174.9
61.6	1364.0	1174.9
61.61	1379.0	1174.9
61.62	1358.0	1174.8
61.63	1373.0	1174.8
61.64	1393.0	1174.8
61.65	1373.0	1174.8
61.66	1380.0	1174.8
61.67	1362.0	1174.8
61.68	1329.0	1174.7
61.69	1389.0	1174.7
61.7	1388.0	1174.7
61.71	1388.0	1174.7
61.72	1409.0	1174.7
61.73	1368.0	1174.6
61.74	1329.0	1174.6
61.75	1333.0	1174.6
61.76	1335.0	1174.6
61.77	1341.0	1174.6
61.78	1424.0	1174.5
61.79	1412.0	1174.5
61.8	1398.0	1174.5
61.81	1413.0	1174.5
61.82	1410.0	1174.4
61.83	1399.0	1174.4
61.84	1401.0	1174.4
61.85	1396.0	1174.4
61.86	1370.0	1174.4
61.87	1377.0	1174.3
61.88	1388.0	1174.3
61.89	1345.0	1174.3
61.9	1357.0	1174.3
61.91	1382.0	1174.2
61.92	1403.0	1174.2
61.93	1404.0	1174.2
61.94	1381.0	1174.2
61.95	1368.0	1174.1
61.96	1406.0	1174.1
61.97	1401.0	1174.1
61.98	1412.0	1174.1
61.99	1404.0	1174.0
62.0	1394.0	1174.0
62.01	1421.0	1174.0
62.02	1431.0	1174.0
62.03	1390.0	1173.9
62.04	1398.0	1173.9
62.05	1370.0	1173.9
62.06	1387.0	1173.9
62.07	1405.0	1173.8
62.08	1452.0	1173.8
62.09	1394.0	1173.8
62.1	1391.0	1173.7
62.11	1427.0	1173.7
62.12	1425.0	1173.7
62.13	1395.0	1173.7
62.14	1417.0	1173.6
62.15	1435.0	1173.6
62.16	1419.0	1173.6
62.17	1403.0	1173.6
62.18	1429.0	1173.5
62.19	1433.0	1173.5
62.2	1407.0	1173.5
62.21	1417.0	1173.4
62.22	1419.0	1173.4
62.23	1348.0	1173.4
62.24	1369.0	1173.3
62.25	1363.0	1173.3
62.26	1391.0	1173.3
62.27	1371.0	1173.3
62.28	1380.0	1173.2
62.29	1410.0	1173.2
62.3	1360.0	1173.2
62.31	1370.0	1173.1
62.32	1416.0	1173.1
62.33	1380.0	1173.1
62.34	1380.0	1173.0
62.35	1375.0	1173.0
62.36	1352.0	1173.0
62.37	1365.0	1172.9
62.38	1388.0	1172.9
62.39	1396.0	1172.9
62.4	1395.0	1172.8
62.41	1354.0	1172.8
62.42	1344.0	1172.8
62.43	1371.0	1172.7
62.44	1392.0	1172.7
62.45	1383.0	1172.7
62.46	1366.0	1172.6
62.47	1340.0	1172.6
62.48	1300.0	1172.6
62.49	1321.0	1172.5
62.5	1380.0	1172.5
62.51	1405.0	1172.5
62.52	1364.0	1172.4
62.53	1345.0	1172.4
62.54	1347.0	1172.4
62.55	1331.0	1172.3
62.56	1332.0	1172.3
62.57	1333.0	1172.3
62.58	1368.0	1172.2
62.59	1369.0	1172.2
62.6	1346.0	1172.2
62.61	1342.0	1172.1
62.62	1334.0	1172.1
62.63	1302.0	1172.0
62.64	1292.0	1172.0
62.65	1311.0	1172.0
62.66	1298.0	1171.9
62.67	1293.0	1171.9
62.68	1350.0	1171.9
62.69	1363.0	1171.8
62.7	1341.0	1171.8
62.71	1355.0	1171.7
62.72	1320.0	1171.7
62.73	1312.0	1171.7
62.74	1338.0	1171.6
62.75	1333.0	1171.6
62.76	1344.0	1171.6
62.77	1322.0	1171.5
62.78	1302.0	1171.5
62.79	1321.0	1171.4
62.8	1306.0	1171.4
62.81	1313.0	1171.4
62.82	1339.0	1171.3
62.83	1346.0	1171.3
62.84	1321.0	1171.2
62.85	1347.0	1171.2
62.86	1342.0	1171.2
62.87	1305.0	1171.1
62.88	1289.0	1171.1
62.89	1278.0	1171.0
62.9	1312.0	1171.0
62.91	1312.0	1171.0
62.92	1326.0	1170.9
62.93	1300.0	1170.9
62.94	1278.0	1170.8
62.95	1296.0	1170.8
62.96	1320.0	1170.7
62.97	1339.0	1170.7
62.98	1315.0	1170.7
62.99	1306.0	1170.6
63.0	1340.0	1170.6
63.01	1345.0	1170.5
63.02	1318.0	1170.5
63.03	1292.0	1170.5
63.04	1269.0	1170.4
63.05	1265.0	1170.4
63.06	1249.0	1170.3
63.07	1275.0	1170.3
63.08	1327.0	1170.2
63.09	1302.0	1170.2
63.1	1300.0	1170.2
63.11	1274.0	1170.1
63.12	1320.0	1170.1
63.13	1316.0	1170.0
63.14	1309.0	1170.0
63.15	1286.0	1169.9
63.16	1301.0	1169.9
63.17	1284.0	1169.8
63.18	1285.0	1169.8
63.19	1283.0	1169.8
63.2	1286.0	1169.7
63.21	1313.0	1169.7
63.22	1349.0	1169.6
63.23	1368.0	1169.6
63.24	1342.0	1169.5
63.25	1327.0	1169.5
63.26	1338.0	1169.4
63.27	1374.0	1169.4
63.28	1335.0	1169.3
63.29	1346.0	1169.3
63.3	1363.0	1169.3
63.31	1323.0	1169.2
63.32	1307.0	1169.2
63.33	1311.0	1169.1
63.34	1317.0	1169.1
63.35	1271.0	1169.0
63.36	1281.0	1169.0
63.37	1283.0	1168.9
63.38	1335.0	1168.9
63.39	1326.0	1168.8
63.4	1335.0	1168.8
63.41	1342.0	1168.7
63.42	1369.0	1168.7
63.43	1353.0	1168.6
63.44	1315.0	1168.6
63.45	1349.0	1168.5
63.46	1345.0	1168.5
63.47	1335.0	1168.4
63.48	1377.0	1168.4
63.49	1346.0	1168.3
63.5	1326.0	1168.3
63.51	1342.0	1168.2
63.52	1299.0	1168.2
63.53	1324.0	1168.2
63.54	1325.0	1168.1
63.55	1338.0	1168.1
63.56	1307.0	1168.0
63.57	1331.0	1168.0
63.58	1379.0	1167.9
63.59	1420.0	1167.9
63.6	1391.0	1167.8
63.61	1363.0	1167.8
63.62	1355.0	1167.7
63.63	1380.0	1167.7
63.64	1397.0	1167.6
63.65	1387.0	1167.6
63.66	1374.0	1167.5
63.67	1367.0	1167.5
63.68	1377.0	1167.4
63.69	1422.0	1167.3
63.7	1368.0	1167.3
63.71	1392.0	1167.2
63.72	1420.0	1167.2
63.73	1427.0	1167.1
63.74	1375.0	1167.1
63.75	1354.0	1167.0
63.76	1358.0	1167.0
63.77	1365.0	1166.9
63.78	1395.0	1166.9
63.79	1355.0	1166.8
63.8	1396.0	1166.8
63.81	1366.0	1166.7
63.82	1354.0	1166.7
63.83	1351.0	1166.6
63.84	1430.0	1166.6
63.85	1442.0	1166.5
63.86	1376.0	1166.5
63.87	1335.0	1166.4
63.88	1365.0	1166.4
63.89	1358.0	1166.3
63.9	1375.0	1166.3
63.91	1394.0	1166.2
63.92	1335.0	1166.1
63.93	1320.0	1166.1
63.94	1371.0	1166.0
63.95	1340.0	1166.0
63.96	1357.0	1165.9
63.97	1371.0	1165.9
63.98	1357.0	1165.8
63.99	1357.0	1165.8
64.0	1338.0	1165.7
64.01	1323.0	1165.7
64.02	1338.0	1165.6
64.03	1353.0	1165.6
64.04	1347.0	1165.5
64.05	1283.0	1165.4
64.06	1290.0	1165.4
64.07	1297.0	1165.3
64.08	1309.0	1165.3
64.09	1344.0	1165.2
64.1	1347.0	1165.2
64.11	1336.0	1165.1
64.12	1325.0	1165.1
64.13	1341.0	1165.0
64.14	1319.0	1164.9
64.15	1297.0	1164.9
64.16	1301.0	1164.8
64.17	1299.0	1164.8
64.18	1252.0	1164.7
64.19	1228.0	1164.7
64.2	1285.0	1164.6
64.21	1258.0	1164.6
64.22	1306.0	1164.5
64.23	1295.0	1164.4
64.24	1259.0	1164.4
64.25	1270.0	1164.3
64.26	1249.0	1164.3
64.27	1268.0	1164.2
64.28	1297.0	1164.2
64.29	1270.0	1164.1
64.3	1249.0	1164.0
64.31	1237.0	1164.0
64.32	1241.0	1163.9
64.33	1243.0	1163.9
64.34	1226.0	1163.8
64.35	1222.0	1163.8
64.36	1277.0	1163.7
64.37	1254.0	1163.6
64.38	1292.0	1163.6
64.39	1281.0	1163.5
64.4	1269.0	1163.5
64.41	1263.0	1163.4
64.42	1262.0	1163.4
64.43	1272.0	1163.3
64.44	1226.0	1163.2
64.45	1191.0	1163.2
64.46	1226.0	1163.1
64.47	1272.0	1163.1
64.48	1270.0	1163.0
64.49	1196.0	1162.9
64.5	1226.0	1162.9
64.51	1225.0	1162.8
64.52	1208.0	1162.8
64.53	1213.0	1162.7
64.54	1208.0	1162.7
64.55	1208.0	1162.6
64.56	1251.0	1162.5
64.57	1294.0	1162.5
64.58	1215.0	1162.4
64.59	1241.0	1162.4
64.6	1229.0	1162.3
64.61	1212.0	1162.2
64.62	1176.0	1162.2
64.63	1197.0	1162.1
64.64	1175.0	1162.1
64.65	1222.0	1162.0
64.66	1238.0	1161.9
64.67	1221.0	1161.9
64.68	1183.0	1161.8
64.69	1233.0	1161.8
64.7	1264.0	1161.7
64.71	1204.0	1161.6
64.72	1224.0	1161.6
64.73	1219.0	1161.5
64.74	1180.0	1161.5
64.75	1190.0	1161.4
64.76	1221.0	1161.3
64.77	1226.0	1161.3
64.78	1206.0	1161.2
64.79	1231.0	1161.2
64.8	1230.0	1161.1
64.81	1219.0	1161.0
64.82	1253.0	1161.0
64.83	1208.0	1160.9
64.84	1190.0	1160.9
64.85	1217.0	1160.8
64.86	1225.0	1160.7
64.87	1240.0	1160.7
64.88	1215.0	1160.6
64.89	1214.0	1160.5
64.9	1167.0	1160.5
64.91	1166.0	1160.4
64.92	1184.0	1160.4
64.93	1167.0	1160.3
64.94	1158.0	1160.2
64.95	1219.0	1160.2
64.96	1170.0	1160.1
64.97	1225.0	1160.1
64.98	1236.0	1160.0
64.99	1248.0	1159.9
65.0	1188.0	1159.9
65.01	1184.0	1159.8
65.02	1170.0	1159.7
65.03	1188.0	1159.7
65.04	1191.0	1159.6
65.05	1190.0	1159.6
65.06	1212.0	1159.5
65.07	1165.0	1159.4
65.08	1187.0	1159.4
65.09	1213.0	1159.3
65.1	1234.0	1159.3
65.11	1237.0	1159.2
65.12	1156.0	1159.1
65.13	1196.0	1159.1
65.14	1208.0	1159.0
65.15	1192.0	1158.9
65.16	1192.0	1158.9
65.17	1187.0	1158.8
65.18	1227.0	1158.8
65.19	1178.0	1158.7
65.2	1184.0	1158.6
65.21	1225.0	1158.6
65.22	1194.0	1158.5
65.23	1190.0	1158.4
65.24	1151.0	1158.4
65.25	1148.0	1158.3
65.26	1167.0	1158.3
65.27	1181.0	1158.2
65.28	1138.0	1158.1
65.29	1156.0	1158.1
65.3	1183.0	1158.0
65.31	1200.0	1157.9
65.32	1191.0	1157.9
65.33	1217.0	1157.8
65.34	1176.0	1157.7
65.35	1156.0	1157.7
65.36	1168.0	1157.6
65.37	1161.0	1157.6
65.38	1175.0	1157.5
65.39	1174.0	1157.4
65.4	1186.0	1157.4
65.41	1177.0	1157.3
65.42	1179.0	1157.2
65.43	1156.0	1157.2
65.44	1197.0	1157.1
65.45	1183.0	1157.0
65.46	1174.0	1157.0
65.47	1189.0	1156.9
65.48	1176.0	1156.9
65.49	1192.0	1156.8
65.5	1172.0	1156.7
65.51	1158.0	1156.7
65.52	1189.0	1156.6
65.53	1213.0	1156.5
65.54	1194.0	1156.5
65.55	1177.0	1156.4
65.56	1165.0	1156.3
65.57	1155.0	1156.3
65.58	1148.0	1156.2
65.59	1159.0	1156.2
65.6	1175.0	1156.1
65.61	1194.0	1156.0
65.62	1160.0	1156.0
65.63	1181.0	1155.9
65.64	1160.0	1155.8
65.65	1174.0	1155.8
65.66	1167.0	1155.7
65.67	1207.0	1155.6
65.68	1170.0	1155.6
65.69	1153.0	1155.5
65.7	1159.0	1155.4
65.71	1163.0	1155.4
65.72	1183.0	1155.3
65.73	1162.0	1155.3
65.74	1201.0	1155.2
65.75	1218.0	1155.1
65.76	1182.0	1155.1
65.77	1144.0	1155.0
65.78	1151.0	1154.9
65.79	1172.0	1154.9
65.8	1139.0	1154.8
65.81	1145.0	1154.7
65.82	1165.0	1154.7
65.83	1140.0	1154.6
65.84	1198.0	1154.5
65.85	1164.0	1154.5
65.86	1132.0	1154.4
65.87	1177.0	1154.4
65.88	1181.0	1154.3
65.89	1172.0	1154.2
65.9	1197.0	1154.2
65.91	1204.0	1154.1
65.92	1208.0	1154.0
65.93	1242.0	1154.0
65.94	1196.0	1153.9
65.95	1165.0	1153.8
65.96	1167.0	1153.8
65.97	1185.0	1153.7
65.98	1115.0	1153.6
65.99	1129.0	1153.6
66.0	1209.0	1153.5
66.01	1207.0	1153.4
66.02	1169.0	1153.4
66.03	1187.0	1153.3
66.04	1177.0	1153.3
66.05	1147.0	1153.2
66.06	1148.0	1153.1
66.07	1168.0	1153.1
66.08	1180.0	1153.0
66.09	1149.0	1152.9
66.1	1180.0	1152.9
66.11	1215.0	1152.8
66.12	1172.0	1152.7
66.13	1163.0	1152.7
66.14	1190.0	1152.6
66.15	1183.0	1152.5
66.16	1213.0	1152.5
66.17	1220.0	1152.4
66.18	1213.0	1152.3
66.19	1247.0	1152.3
66.2	1226.0	1152.2
66.21	1220.0	1152.2
66.22	1257.0	1152.1
66.23	1246.0	1152.0
66.24	1177.0	1152.0
66.25	1169.0	1151.9
66.26	1209.0	1151.8
66.27	1172.0	1151.8
66.28	1163.0	1151.7
66.29	1158.0	1151.6
66.3	1156.0	1151.6
66.31	1198.0	1151.5
66.32	1159.0	1151.4
66.33	1152.0	1151.4
66.34	1181.0	1151.3
66.35	1175.0	1151.2
66.36	1217.0	1151.2
66.37	1185.0	1151.1
66.38	1194.0	1151.0
66.39	1176.0	1151.0
66.4	1138.0	1150.9
66.41	1210.0	1150.9
66.42	1234.0	1150.8
66.43	1147.0	1150.7
66.44	1167.0	1150.7
66.45	1227.0	1150.6
66.46	1193.0	1150.5
66.47	1219.0	1150.5
66.48	1207.0	1150.4
66.49	1144.0	1150.3
66.5	1168.0	1150.3
66.51	1163.0	1150.2
66.52	1218.0	1150.1
66.53	1193.0	1150.1
66.54	1154.0	1150.0
66.55	1176.0	1149.9
66.56	1191.0	1149.9
66.57	1198.0	1149.8
66.58	1214.0	1149.8
66.59	1159.0	1149.7
66.6	1154.0	1149.6
66.61	1168.0	1149.6
66.62	1151.0	1149.5
66.63	1167.0	1149.4
66.64	1150.0	1149.4
66.65	1230.0	1149.3
66.66	1188.0	1149.2
66.67	1136.0	1149.2
66.68	1186.0	1149.1
66.69	1153.0	1149.0
66.7	1149.0	1149.0
66.71	1183.0	1148.9
66.72	1202.0	1148.9
66.73	1187.0	1148.8
66.74	1191.0	1148.7
66.75	1207.0	1148.7
66.76	1221.0	1148.6
66.77	1207.0	1148.5
66.78	1177.0	1148.5
66.79	1156.0	1148.4
66.8	1161.0	1148.3
66.81	1149.0	1148.3
66.82	1201.0	1148.2
66.83	1213.0	1148.1
66.84	1192.0	1148.1
66.85	1202.0	1148.0
66.86	1193.0	1148.0
66.87	1170.0	1147.9
66.88	1167.0	1147.8
66.89	1161.0	1147.8
66.9	1177.0	1147.7
66.91	1162.0	1147.6
66.92	1147.0	1147.6
66.93	1201.0	1147.5
66.94	1159.0	1147.4
66.95	1225.0	1147.4
66.96	1227.0	1147.3
66.97	1221.0	1147.2
66.98	1215.0	1147.2
66.99	1174.0	1147.1
67.0	1165.0	1147.1
67.01	1204.0	1147.0
67.02	1244.0	1146.9
67.03	1218.0	1146.9
67.04	1154.0	1146.8
67.05	1138.0	1146.7
67.06	1150.0	1146.7
67.07	1217.0	1146.6
67.08	1219.0	1146.5
67.09	1185.0	1146.5
67.1	1195.0	1146.4
67.11	1164.0	1146.4
67.12	1204.0	1146.3
67.13	1177.0	1146.2
67.14	1110.0	1146.2
67.15	1140.0	1146.1
67.16	1173.0	1146.0
67.17	1169.0	1146.0
67.18	1154.0	1145.9
67.19	1137.0	1145.9
67.2	1153.0	1145.8
67.21	1175.0	1145.7
67.22	1164.0	1145.7
67.23	1180.0	1145.6
67.24	1223.0	1145.5
67.25	1222.0	1145.5
67.26	1179.0	1145.4
67.27	1176.0	1145.3
67.28	1162.0	1145.3
67.29	1180.0	1145.2
67.3	1166.0	1145.2
67.31	1169.0	1145.1
67.32	1164.0	1145.0
67.33	1206.0	1145.0
67.34	1215.0	1144.9
67.35	1226.0	1144.8
67.36	1180.0	1144.8
67.37	1191.0	1144.7
67.38	1172.0	1144.7
67.39	1163.0	1144.6
67.4	1180.0	1144.5
67.41	1169.0	1144.5
67.42	1159.0	1144.4
67.43	1161.0	1144.3
67.44	1198.0	1144.3
67.45	1176.0	1144.2
67.46	1176.0	1144.2
67.47	1186.0	1144.1
67.48	1170.0	1144.0
67.49	1195.0	1144.0
67.5	1182.0	1143.9
67.51	1137.0	1143.8
67.52	1176.0	1143.8
67.53	1209.0	1143.7
67.54	1169.0	1143.7
67.55	1244.0	1143.6
67.56	1184.0	1143.5
67.57	1141.0	1143.5
67.58	1156.0	1143.4
67.59	1170.0	1143.3
67.6	1192.0	1143.3
67.61	1193.0	1143.2
67.62	1215.0	1143.2
67.63	1201.0	1143.1
67.64	1187.0	1143.0
67.65	1194.0	1143.0
67.66	1197.0	1142.9
67.67	1162.0	1142.9
67.68	1166.0	1142.8
67.69	1184.0	1142.7
67.7	1171.0	1142.7
67.71	1159.0	1142.6
67.72	1172.0	1142.6
67.73	1162.0	1142.5
67.74	1215.0	1142.4
67.75	1213.0	1142.4
67.76	1168.0	1142.3
67.77	1150.0	1142.2
67.78	1125.0	1142.2
67.79	1124.0	1142.1
67.8	1155.0	1142.1
67.81	1167.0	1142.0
67.82	1170.0	1141.9
67.83	1180.0	1141.9
67.84	1169.0	1141.8
67.85	1174.0	1141.8
67.86	1184.0	1141.7
67.87	1172.0	1141.6
67.88	1158.0	1141.6
67.89	1156.0	1141.5
67.9	1116.0	1141.5
67.91	1156.0	1141.4
67.92	1179.0	1141.3
67.93	1187.0	1141.3
67.94	1184.0	1141.2
67.95	1217.0	1141.2
67.96	1178.0	1141.1
67.97	1141.0	1141.0
67.98	1187.0	1141.0
67.99	1176.0	1140.9
68.0	1188.0	1140.9
68.01	1158.0	1140.8
68.02	1169.0	1140.7
68.03	1140.0	1140.7
68.04	1188.0	1140.6
68.05	1197.0	1140.6
68.06	1202.0	1140.5
68.07	1208.0	1140.4
68.08	1153.0	1140.4
68.09	1164.0	1140.3
68.1	1208.0	1140.3
68.11	1201.0	1140.2
68.12	1182.0	1140.1
68.13	1175.0	1140.1
68.14	1180.0	1140.0
68.15	1200.0	1140.0
68.16	1187.0	1139.9
68.17	1192.0	1139.9
68.18	1179.0	1139.8
68.19	1229.0	1139.7
68.2	1202.0	1139.7
68.21	1168.0	1139.6
68.22	1185.0	1139.6
68.23	1183.0	1139.5
68.24	1176.0	1139.4
68.25	1207.0	1139.4
68.26	1228.0	1139.3
68.27	1195.0	1139.3
68.28	1196.0	1139.2
68.29	1168.0	1139.2
68.3	1176.0	1139.1
68.31	1187.0	1139.0
68.32	1189.0	1139.0
68.33	1197.0	1138.9
68.34	1196.0	1138.9
68.35	1244.0	1138.8
68.36	1219.0	1138.7
68.37	1198.0	1138.7
68.38	1166.0	1138.6
68.39	1147.0	1138.6
68.4	1186.0	1138.5
68.41	1197.0	1138.5
68.42	1131.0	1138.4
68.43	1178.0	1138.3
68.44	1202.0	1138.3
68.45	1177.0	1138.2
68.46	1182.0	1138.2
68.47	1159.0	1138.1
68.48	1163.0	1138.1
68.49	1144.0	1138.0
68.5	1207.0	1138.0
68.51	1216.0	1137.9
68.52	1199.0	1137.8
68.53	1218.0	1137.8
68.54	1182.0	1137.7
68.55	1171.0	1137.7
68.56	1203.0	1137.6
68.57	1174.0	1137.6
68.58	1135.0	1137.5
68.59	1169.0	1137.4
68.6	1204.0	1137.4
68.61	1177.0	1137.3
68.62	1204.0	1137.3
68.63	1217.0	1137.2
68.64	1210.0	1137.2
68.65	1161.0	1137.1
68.66	1224.0	1137.1
68.67	1190.0	1137.0
68.68	1166.0	1136.9
68.69	1187.0	1136.9
68.7	1215.0	1136.8
68.71	1189.0	1136.8
68.72	1164.0	1136.7
68.73	1215.0	1136.7
68.74	1197.0	1136.6
68.75	1154.0	1136.6
68.76	1223.0	1136.5
68.77	1206.0	1136.5
68.78	1172.0	1136.4
68.79	1168.0	1136.3
68.8	1175.0	1136.3
68.81	1188.0	1136.2
68.82	1149.0	1136.2
68.83	1169.0	1136.1
68.84	1173.0	1136.1
68.85	1179.0	1136.0
68.86	1224.0	1136.0
68.87	1170.0	1135.9
68.88	1144.0	1135.9
68.89	1184.0	1135.8
68.9	1206.0	1135.8
68.91	1183.0	1135.7
68.92	1165.0	1135.7
68.93	1181.0	1135.6
68.94	1194.0	1135.5
68.95	1203.0	1135.5
68.96	1190.0	1135.4
68.97	1170.0	1135.4
68.98	1155.0	1135.3
68.99	1183.0	1135.3
69.0	1179.0	1135.2
69.01	1168.0	1135.2
69.02	1177.0	1135.1
69.03	1210.0	1135.1
69.04	1246.0	1135.0
69.05	1197.0	1135.0
69.06	1176.0	1134.9
69.07	1209.0	1134.9
69.08	1187.0	1134.8
69.09	1155.0	1134.8
69.1	1172.0	1134.7
69.11	1185.0	1134.7
69.12	1163.0	1134.6
69.13	1175.0	1134.6
69.14	1188.0	1134.5
69.15	1181.0	1134.5
69.16	1167.0	1134.4
69.17	1162.0	1134.4
69.18	1166.0	1134.3
69.19	1127.0	1134.3
69.2	1145.0	1134.2
69.21	1198.0	1134.2
69.22	1152.0	1134.1
69.23	1121.0	1134.1
69.24	1146.0	1134.0
69.25	1206.0	1133.9
69.26	1216.0	1133.9
69.27	1211.0	1133.9
69.28	1134.0	1133.8
69.29	1111.0	1133.8
69.3	1145.0	1133.7
69.31	1169.0	1133.7
69.32	1166.0	1133.6
69.33	1176.0	1133.6
69.34	1170.0	1133.5
69.35	1211.0	1133.5
69.36	1162.0	1133.4
69.37	1130.0	1133.4
69.38	1154.0	1133.3
69.39	1154.0	1133.3
69.4	1185.0	1133.2
69.41	1154.0	1133.2
69.42	1145.0	1133.1
69.43	1173.0	1133.1
69.44	1173.0	1133.0
69.45	1164.0	1133.0
69.46	1143.0	1132.9
69.47	1180.0	1132.9
69.48	1164.0	1132.8
69.49	1170.0	1132.8
69.5	1220.0	1132.7
69.51	1199.0	1132.7
69.52	1183.0	1132.6
69.53	1201.0	1132.6
69.54	1170.0	1132.5
69.55	1174.0	1132.5
69.56	1185.0	1132.4
69.57	1185.0	1132.4
69.58	1197.0	1132.4
69.59	1219.0	1132.3
69.6	1186.0	1132.3
69.61	1141.0	1132.2
69.62	1141.0	1132.2
69.63	1158.0	1132.1
69.64	1183.0	1132.1
69.65	1183.0	1132.0
69.66	1184.0	1132.0
69.67	1146.0	1131.9
69.68	1156.0	1131.9
69.69	1192.0	1131.8
69.7	1207.0	1131.8
69.71	1194.0	1131.8
69.72	1184.0	1131.7
69.73	1165.0	1131.7
69.74	1128.0	1131.6
69.75	1139.0	1131.6
69.76	1146.0	1131.5
69.77	1131.0	1131.5
69.78	1164.0	1131.4
69.79	1157.0	1131.4
69.8	1115.0	1131.4
69.81	1153.0	1131.3
69.82	1142.0	1131.3
69.83	1183.0	1131.2
69.84	1201.0	1131.2
69.85	1193.0	1131.1
69.86	1220.0	1131.1
69.87	1169.0	1131.0
69.88	1168.0	1131.0
69.89	1194.0	1131.0
69.9	1184.0	1130.9
69.91	1142.0	1130.9
69.92	1152.0	1130.8
69.93	1144.0	1130.8
69.94	1132.0	1130.7
69.95	1137.0	1130.7
69.96	1197.0	1130.7
69.97	1168.0	1130.6
69.98	1140.0	1130.6
69.99	1140.0	1130.5
70.0	1155.0	1130.5
70.01	1172.0	1130.5
70.02	1184.0	1130.4
70.03	1195.0	1130.4
70.04	1143.0	1130.3
70.05	1103.0	1130.3
70.06	1101.0	1130.2
70.07	1151.0	1130.2
70.08	1162.0	1130.2
70.09	1150.0	1130.1
70.1	1195.0	1130.1
70.11	1180.0	1130.0
70.12	1154.0	1130.0
70.13	1134.0	1130.0
70.14	1159.0	1129.9
70.15	1178.0	1129.9
70.16	1183.0	1129.8
70.17	1163.0	1129.8
70.18	1157.0	1129.8
70.19	1124.0	1129.7
70.2	1143.0	1129.7
70.21	1206.0	1129.6
70.22	1174.0	1129.6
70.23	1139.0	1129.6
70.24	1153.0	1129.5
70.25	1135.0	1129.5
70.26	1130.0	1129.4
70.27	1173.0	1129.4
70.28	1180.0	1129.4
70.29	1124.0	1129.3
70.3	1153.0	1129.3
70.31	1129.0	1129.3
70.32	1193.0	1129.2
70.33	1176.0	1129.2
70.34	1147.0	1129.1
70.35	1104.0	1129.1
70.36	1132.0	1129.1
70.37	1162.0	1129.0
70.38	1181.0	1129.0
70.39	1155.0	1129.0
70.4	1135.0	1128.9
70.41	1137.0	1128.9
70.42	1159.0	1128.8
70.43	1145.0	1128.8
70.44	1139.0	1128.8
70.45	1145.0	1128.7
70.46	1137.0	1128.7
70.47	1140.0	1128.7
70.48	1145.0	1128.6
70.49	1154.0	1128.6
70.5	1133.0	1128.6
70.51	1175.0	1128.5
70.52	1206.0	1128.5
70.53	1172.0	1128.5
70.54	1157.0	1128.4
70.55	1170.0	1128.4
70.56	1145.0	1128.4
70.57	1131.0	1128.3
70.58	1149.0	1128.3
70.59	1170.0	1128.2
70.6	1167.0	1128.2
70.61	1125.0	1128.2
70.62	1130.0	1128.1
70.63	1135.0	1128.1
70.64	1155.0	1128.1
70.65	1156.0	1128.0
70.66	1183.0	1128.0
70.67	1142.0	1128.0
70.68	1111.0	1127.9
70.69	1196.0	1127.9
70.7	1188.0	1127.9
70.71	1172.0	1127.8
70.72	1146.0	1127.8
70.73	1162.0	1127.8
70.74	1191.0	1127.8
70.75	1214.0	1127.7
70.76	1170.0	1127.7
70.77	1145.0	1127.7
70.78	1145.0	1127.6
70.79	1158.0	1127.6
70.8	1157.0	1127.6
70.81	1151.0	1127.5
70.82	1150.0	1127.5
70.83	1151.0	1127.5
70.84	1145.0	1127.4
70.85	1119.0	1127.4
70.86	1099.0	1127.4
70.87	1116.0	1127.3
70.88	1186.0	1127.3
70.89	1198.0	1127.3
70.9	1155.0	1127.3
70.91	1165.0	1127.2
70.92	1142.0	1127.2
70.93	1152.0	1127.2
70.94	1173.0	1127.1
70.95	1151.0	1127.1
70.96	1147.0	1127.1
70.97	1156.0	1127.1
70.98	1125.0	1127.0
70.99	1173.0	1127.0
71.0	1162.0	1127.0
71.01	1183.0	1126.9
71.02	1143.0	1126.9
71.03	1122.0	1126.9
71.04	1141.0	1126.9
71.05	1191.0	1126.8
71.06	1191.0	1126.8
71.07	1159.0	1126.8
71.08	1133.0	1126.7
71.09	1150.0	1126.7
71.1	1193.0	1126.7
71.11	1163.0	1126.7
71.12	1133.0	1126.6
71.13	1118.0	1126.6
71.14	1163.0	1126.6
71.15	1176.0	1126.6
71.16	1165.0	1126.5
71.17	1194.0	1126.5
71.18	1184.0	1126.5
71.19	1173.0	1126.5
71.2	1170.0	1126.4
71.21	1142.0	1126.4
71.22	1199.0	1126.4
71.23	1151.0	1126.4
71.24	1140.0	1126.3
71.25	1139.0	1126.3
71.26	1133.0	1126.3
71.27	1129.0	1126.3
71.28	1154.0	1126.2
71.29	1172.0	1126.2
71.3	1130.0	1126.2
71.31	1109.0	1126.2
71.32	1127.0	1126.1
71.33	1127.0	1126.1
71.34	1136.0	1126.1
71.35	1139.0	1126.1
71.36	1145.0	1126.1
71.37	1192.0	1126.0
71.38	1161.0	1126.0
71.39	1166.0	1126.0
71.4	1169.0	1126.0
71.41	1115.0	1125.9
71.42	1171.0	1125.9
71.43	1182.0	1125.9
71.44	1161.0	1125.9
71.45	1200.0	1125.9
71.46	1175.0	1125.8
71.47	1174.0	1125.8
71.48	1169.0	1125.8
71.49	1142.0	1125.8
71.5	1137.0	1125.8
71.51	1142.0	1125.7
71.52	1170.0	1125.7
71.53	1201.0	1125.7
71.54	1170.0	1125.7
71.55	1130.0	1125.7
71.56	1132.0	1125.6
71.57	1162.0	1125.6
71.58	1209.0	1125.6
71.59	1197.0	1125.6
71.6	1180.0	1125.6
71.61	1135.0	1125.6
71.62	1194.0	1125.5
71.63	1184.0	1125.5
71.64	1190.0	1125.5
71.65	1140.0	1125.5
71.66	1155.0	1125.5
71.67	1164.0	1125.4
71.68	1126.0	1125.4
71.69	1116.0	1125.4
71.7	1130.0	1125.4
71.71	1163.0	1125.4
71.72	1168.0	1125.4
71.73	1188.0	1125.3
71.74	1185.0	1125.3
71.75	1144.0	1125.3
71.76	1160.0	1125.3
71.77	1182.0	1125.3
71.78	1177.0	1125.3
71.79	1163.0	1125.3
71.8	1180.0	1125.2
71.81	1181.0	1125.2
71.82	1161.0	1125.2
71.83	1180.0	1125.2
71.84	1191.0	1125.2
71.85	1167.0	1125.2
71.86	1127.0	1125.2
71.87	1134.0	1125.1
71.88	1152.0	1125.1
71.89	1160.0	1125.1
71.9	1143.0	1125.1
71.91	1150.0	1125.1
71.92	1162.0	1125.1
71.93	1157.0	1125.1
71.94	1171.0	1125.0
71.95	1133.0	1125.0
71.96	1126.0	1125.0
71.97	1107.0	1125.0
71.98	1127.0	1125.0
71.99	1177.0	1125.0
72.0	1160.0	1125.0
72.01	1127.0	1125.0
72.02	1161.0	1125.0
72.03	1168.0	1124.9
72.04	1180.0	1124.9
72.05	1145.0	1124.9
72.06	1148.0	1124.9
72.07	1150.0	1124.9
72.08	1112.0	1124.9
72.09	1127.0	1124.9
72.1	1160.0	1124.9
72.11	1159.0	1124.9
72.12	1186.0	1124.9
72.13	1196.0	1124.8
72.14	1140.0	1124.8
72.15	1163.0	1124.8
72.16	1168.0	1124.8
72.17	1182.0	1124.8
72.18	1217.0	1124.8
72.19	1202.0	1124.8
72.2	1169.0	1124.8
72.21	1197.0	1124.8
72.22	1172.0	1124.8
72.23	1102.0	1124.8
72.24	1115.0	1124.8
72.25	1137.0	1124.8
72.26	1159.0	1124.7
72.27	1130.0	1124.7
72.28	1117.0	1124.7
72.29	1175.0	1124.7
72.3	1159.0	1124.7
72.31	1133.0	1124.7
72.32	1110.0	1124.7
72.33	1128.0	1124.7
72.34	1178.0	1124.7
72.35	1188.0	1124.7
72.36	1165.0	1124.7
72.37	1115.0	1124.7
72.38	1143.0	1124.7
72.39	1181.0	1124.7
72.4	1181.0	1124.7
72.41	1221.0	1124.7
72.42	1183.0	1124.7
72.43	1177.0	1124.7
72.44	1149.0	1124.7
72.45	1137.0	1124.7
72.46	1173.0	1124.7
72.47	1155.0	1124.7
72.48	1181.0	1124.7
72.49	1163.0	1124.7
72.5	1171.0	1124.7
72.51	1164.0	1124.7
72.52	1152.0	1124.7
72.53	1138.0	1124.6
72.54	1134.0	1124.6
72.55	1122.0	1124.6
72.56	1129.0	1124.6
72.57	1186.0	1124.6
72.58	1208.0	1124.6
72.59	1147.0	1124.6
72.6	1116.0	1124.6
72.61	1131.0	1124.6
72.62	1154.0	1124.6
72.63	1126.0	1124.7
72.64	1149.0	1124.7
72.65	1167.0	1124.7
72.66	1143.0	1124.7
72.67	1147.0	1124.7
72.68	1158.0	1124.7
72.69	1136.0	1124.7
72.7	1115.0	1124.7
72.71	1146.0	1124.7
72.72	1178.0	1124.7
72.73	1217.0	1124.7
72.74	1185.0	1124.7
72.75	1167.0	1124.7
72.76	1172.0	1124.7
72.77	1173.0	1124.7
72.78	1169.0	1124.7
72.79	1185.0	1124.7
72.8	1154.0	1124.7
72.81	1154.0	1124.7
72.82	1169.0	1124.7
72.83	1176.0	1124.7
72.84	1149.0	1124.7
72.85	1138.0	1124.7
72.86	1106.0	1124.7
72.87	1109.0	1124.7
72.88	1140.0	1124.7
72.89	1149.0	1124.7
72.9	1136.0	1124.8
72.91	1126.0	1124.8
72.92	1175.0	1124.8
72.93	1162.0	1124.8
72.94	1097.0	1124.8
72.95	1088.0	1124.8
72.96	1148.0	1124.8
72.97	1140.0	1124.8
72.98	1143.0	1124.8
72.99	1134.0	1124.8
73.0	1153.0	1124.8
73.01	1194.0	1124.8
73.02	1152.0	1124.9
73.03	1117.0	1124.9
73.04	1171.0	1124.9
73.05	1172.0	1124.9
73.06	1171.0	1124.9
73.07	1137.0	1124.9
73.08	1150.0	1124.9
73.09	1163.0	1124.9
73.1	1138.0	1124.9
73.11	1186.0	1124.9
73.12	1168.0	1125.0
73.13	1155.0	1125.0
73.14	1166.0	1125.0
73.15	1164.0	1125.0
73.16	1154.0	1125.0
73.17	1149.0	1125.0
73.18	1098.0	1125.0
73.19	1143.0	1125.0
73.2	1159.0	1125.1
73.21	1115.0	1125.1
73.22	1126.0	1125.1
73.23	1155.0	1125.1
73.24	1178.0	1125.1
73.25	1186.0	1125.1
73.26	1135.0	1125.1
73.27	1106.0	1125.2
73.28	1144.0	1125.2
73.29	1165.0	1125.2
73.3	1149.0	1125.2
73.31	1129.0	1125.2
73.32	1178.0	1125.2
73.33	1154.0	1125.2
73.34	1157.0	1125.3
73.35	1167.0	1125.3
73.36	1156.0	1125.3
73.37	1118.0	1125.3
73.38	1122.0	1125.3
73.39	1161.0	1125.3
73.4	1153.0	1125.4
73.41	1158.0	1125.4
73.42	1153.0	1125.4
73.43	1126.0	1125.4
73.44	1152.0	1125.4
73.45	1120.0	1125.5
73.46	1151.0	1125.5
73.47	1140.0	1125.5
73.48	1126.0	1125.5
73.49	1150.0	1125.5
73.5	1148.0	1125.6
73.51	1173.0	1125.6
73.52	1179.0	1125.6
73.53	1113.0	1125.6
73.54	1087.0	1125.6
73.55	1125.0	1125.7
73.56	1161.0	1125.7
73.57	1143.0	1125.7
73.58	1133.0	1125.7
73.59	1157.0	1125.7
73.6	1159.0	1125.8
73.61	1168.0	1125.8
73.62	1168.0	1125.8
73.63	1146.0	1125.8
73.64	1150.0	1125.9
73.65	1175.0	1125.9
73.66	1175.0	1125.9
73.67	1179.0	1125.9
73.68	1131.0	1126.0
73.69	1156.0	1126.0
73.7	1126.0	1126.0
73.71	1127.0	1126.0
73.72	1186.0	1126.1
73.73	1170.0	1126.1
73.74	1133.0	1126.1
73.75	1107.0	1126.1
73.76	1127.0	1126.2
73.77	1145.0	1126.2
73.78	1125.0	1126.2
73.79	1099.0	1126.2
73.8	1103.0	1126.3
73.81	1133.0	1126.3
73.82	1156.0	1126.3
73.83	1157.0	1126.3
73.84	1162.0	1126.4
73.85	1166.0	1126.4
73.86	1176.0	1126.4
73.87	1175.0	1126.5
73.88	1129.0	1126.5
73.89	1114.0	1126.5
73.9	1141.0	1126.5
73.91	1122.0	1126.6
73.92	1155.0	1126.6
73.93	1156.0	1126.6
73.94	1117.0	1126.7
73.95	1097.0	1126.7
73.96	1129.0	1126.7
73.97	1136.0	1126.8
73.98	1168.0	1126.8
73.99	1186.0	1126.8
74.0	1190.0	1126.8
74.01	1175.0	1126.9
74.02	1148.0	1126.9
74.03	1140.0	1126.9
74.04	1132.0	1127.0
74.05	1161.0	1127.0
74.06	1158.0	1127.0
74.07	1155.0	1127.1
74.08	1149.0	1127.1
74.09	1162.0	1127.1
74.1	1158.0	1127.2
74.11	1118.0	1127.2
74.12	1106.0	1127.2
74.13	1094.0	1127.3
74.14	1128.0	1127.3
74.15	1148.0	1127.3
74.16	1201.0	1127.4
74.17	1163.0	1127.4
74.18	1142.0	1127.4
74.19	1146.0	1127.5
74.2	1155.0	1127.5
74.21	1153.0	1127.5
74.22	1136.0	1127.6
74.23	1142.0	1127.6
74.24	1137.0	1127.6
74.25	1110.0	1127.7
74.26	1145.0	1127.7
74.27	1178.0	1127.7
74.28	1152.0	1127.8
74.29	1115.0	1127.8
74.3	1135.0	1127.8
74.31	1183.0	1127.9
74.32	1149.0	1127.9
74.33	1175.0	1128.0
74.34	1145.0	1128.0
74.35	1134.0	1128.0
74.36	1122.0	1128.1
74.37	1142.0	1128.1
74.38	1175.0	1128.1
74.39	1157.0	1128.2
74.4	1176.0	1128.2
74.41	1173.0	1128.3
74.42	1147.0	1128.3
74.43	1110.0	1128.3
74.44	1139.0	1128.4
74.45	1160.0	1128.4
74.46	1135.0	1128.4
74.47	1115.0	1128.5
74.48	1162.0	1128.5
74.49	1174.0	1128.6
74.5	1117.0	1128.6
74.51	1166.0	1128.6
74.52	1172.0	1128.7
74.53	1167.0	1128.7
74.54	1151.0	1128.8
74.55	1169.0	1128.8
74.56	1148.0	1128.8
74.57	1143.0	1128.9
74.58	1150.0	1128.9
74.59	1181.0	1129.0
74.6	1185.0	1129.0
74.61	1174.0	1129.0
74.62	1189.0	1129.1
74.63	1193.0	1129.1
74.64	1122.0	1129.2
74.65	1137.0	1129.2
74.66	1166.0	1129.2
74.67	1139.0	1129.3
74.68	1134.0	1129.3
74.69	1169.0	1129.4
74.7	1152.0	1129.4
74.71	1146.0	1129.5
74.72	1164.0	1129.5
74.73	1199.0	1129.5
74.74	1184.0	1129.6
74.75	1176.0	1129.6
74.76	1182.0	1129.7
74.77	1150.0	1129.7
74.78	1156.0	1129.7
74.79	1174.0	1129.8
74.8	1159.0	1129.8
74.81	1144.0	1129.9
74.82	1147.0	1129.9
74.83	1160.0	1130.0
74.84	1197.0	1130.0
74.85	1175.0	1130.0
74.86	1157.0	1130.1
74.87	1146.0	1130.1
74.88	1174.0	1130.2
74.89	1203.0	1130.2
74.9	1151.0	1130.3
74.91	1142.0	1130.3
74.92	1163.0	1130.4
74.93	1139.0	1130.4
74.94	1155.0	1130.4
74.95	1179.0	1130.5
74.96	1187.0	1130.5
74.97	1187.0	1130.6
74.98	1161.0	1130.6
74.99	1189.0	1130.7
75.0	1209.0	1130.7
75.01	1171.0	1130.8
75.02	1160.0	1130.8
75.03	1146.0	1130.8
75.04	1142.0	1130.9
75.05	1163.0	1130.9
75.06	1126.0	1131.0
75.07	1144.0	1131.0
75.08	1156.0	1131.1
75.09	1172.0	1131.1
75.1	1184.0	1131.2
75.11	1146.0	1131.2
75.12	1132.0	1131.3
75.13	1160.0	1131.3
75.14	1180.0	1131.3
75.15	1169.0	1131.4
75.16	1146.0	1131.4
75.17	1146.0	1131.5
75.18	1172.0	1131.5
75.19	1152.0	1131.6
75.2	1154.0	1131.6
75.21	1166.0	1131.7
75.22	1116.0	1131.7
75.23	1103.0	1131.8
75.24	1161.0	1131.8
75.25	1173.0	1131.9
75.26	1175.0	1131.9
75.27	1141.0	1132.0
75.28	1179.0	1132.0
75.29	1177.0	1132.0
75.3	1134.0	1132.1
75.31	1186.0	1132.1
75.32	1209.0	1132.2
75.33	1182.0	1132.2
75.34	1171.0	1132.3
75.35	1188.0	1132.3
75.36	1159.0	1132.4
75.37	1160.0	1132.4
75.38	1178.0	1132.5
75.39	1173.0	1132.5
75.4	1169.0	1132.6
75.41	1193.0	1132.6
75.42	1212.0	1132.7
75.43	1210.0	1132.7
75.44	1165.0	1132.8
75.45	1170.0	1132.8
75.46	1183.0	1132.9
75.47	1193.0	1132.9
75.48	1203.0	1133.0
75.49	1196.0	1133.0
75.5	1188.0	1133.1
75.51	1184.0	1133.1
75.52	1196.0	1133.2
75.53	1201.0	1133.2
75.54	1236.0	1133.2
75.55	1211.0	1133.3
75.56	1222.0	1133.3
75.57	1207.0	1133.4
75.58	1175.0	1133.4
75.59	1181.0	1133.5
75.6	1230.0	1133.5
75.61	1227.0	1133.6
75.62	1229.0	1133.6
75.63	1202.0	1133.7
75.64	1189.0	1133.7
75.65	1171.0	1133.8
75.66	1177.0	1133.8
75.67	1168.0	1133.9
75.68	1188.0	1133.9
75.69	1231.0	1134.0
75.7	1212.0	1134.0
75.71	1224.0	1134.1
75.72	1194.0	1134.1
75.73	1200.0	1134.2
75.74	1207.0	1134.2
75.75	1202.0	1134.3
75.76	1177.0	1134.3
75.77	1198.0	1134.4
75.78	1209.0	1134.4
75.79	1193.0	1134.5
75.8	1179.0	1134.5
75.81	1181.0	1134.6
75.82	1157.0	1134.6
75.83	1214.0	1134.7
75.84	1179.0	1134.7
75.85	1198.0	1134.8
75.86	1213.0	1134.8
75.87	1204.0	1134.9
75.88	1172.0	1134.9
75.89	1149.0	1135.0
75.9	1210.0	1135.0
75.91	1246.0	1135.1
75.92	1214.0	1135.1
75.93	1216.0	1135.2
75.94	1219.0	1135.2
75.95	1211.0	1135.3
75.96	1200.0	1135.3
75.97	1201.0	1135.4
75.98	1191.0	1135.4
75.99	1188.0	1135.5
76.0	1201.0	1135.5
76.01	1207.0	1135.6
76.02	1205.0	1135.6
76.03	1187.0	1135.7
76.04	1235.0	1135.7
76.05	1224.0	1135.8
76.06	1202.0	1135.8
76.07	1214.0	1135.8
76.08	1195.0	1135.9
76.09	1176.0	1135.9
76.1	1192.0	1136.0
76.11	1216.0	1136.0
76.12	1235.0	1136.1
76.13	1227.0	1136.1
76.14	1218.0	1136.2
76.15	1191.0	1136.2
76.16	1174.0	1136.3
76.17	1192.0	1136.3
76.18	1198.0	1136.4
76.19	1162.0	1136.4
76.2	1173.0	1136.5
76.21	1201.0	1136.5
76.22	1159.0	1136.6
76.23	1172.0	1136.6
76.24	1202.0	1136.7
76.25	1212.0	1136.7
76.26	1224.0	1136.8
76.27	1219.0	1136.8
76.28	1163.0	1136.9
76.29	1191.0	1136.9
76.3	1188.0	1137.0
76.31	1130.0	1137.0
76.32	1177.0	1137.1
76.33	1203.0	1137.1
76.34	1188.0	1137.2
76.35	1169.0	1137.2
76.36	1201.0	1137.3
76.37	1170.0	1137.3
76.38	1161.0	1137.4
76.39	1200.0	1137.4
76.4	1208.0	1137.5
76.41	1178.0	1137.5
76.42	1232.0	1137.6
76.43	1241.0	1137.6
76.44	1178.0	1137.7
76.45	1143.0	1137.7
76.46	1211.0	1137.7
76.47	1200.0	1137.8
76.48	1218.0	1137.8
76.49	1192.0	1137.9
76.5	1159.0	1137.9
76.51	1170.0	1138.0
76.52	1146.0	1138.0
76.53	1173.0	1138.1
76.54	1194.0	1138.1
76.55	1198.0	1138.2
76.56	1198.0	1138.2
76.57	1185.0	1138.3
76.58	1195.0	1138.3
76.59	1188.0	1138.4
76.6	1171.0	1138.4
76.61	1194.0	1138.5
76.62	1182.0	1138.5
76.63	1186.0	1138.6
76.64	1186.0	1138.6
76.65	1158.0	1138.7
76.66	1176.0	1138.7
76.67	1207.0	1138.7
76.68	1228.0	1138.8
76.69	1201.0	1138.8
76.7	1187.0	1138.9
76.71	1169.0	1138.9
76.72	1188.0	1139.0
76.73	1200.0	1139.0
76.74	1223.0	1139.1
76.75	1197.0	1139.1
76.76	1186.0	1139.2
76.77	1222.0	1139.2
76.78	1196.0	1139.3
76.79	1174.0	1139.3
76.8	1190.0	1139.3
76.81	1132.0	1139.4
76.82	1159.0	1139.4
76.83	1237.0	1139.5
76.84	1178.0	1139.5
76.85	1170.0	1139.6
76.86	1192.0	1139.6
76.87	1166.0	1139.7
76.88	1203.0	1139.7
76.89	1156.0	1139.8
76.9	1139.0	1139.8
76.91	1146.0	1139.8
76.92	1158.0	1139.9
76.93	1150.0	1139.9
76.94	1189.0	1140.0
76.95	1170.0	1140.0
76.96	1139.0	1140.1
76.97	1170.0	1140.1
76.98	1160.0	1140.2
76.99	1173.0	1140.2
77.0	1161.0	1140.2
77.01	1143.0	1140.3
77.02	1155.0	1140.3
77.03	1175.0	1140.4
77.04	1183.0	1140.4
77.05	1200.0	1140.5
77.06	1156.0	1140.5
77.07	1169.0	1140.5
77.08	1177.0	1140.6
77.09	1190.0	1140.6
77.1	1181.0	1140.7
77.11	1180.0	1140.7
77.12	1146.0	1140.8
77.13	1143.0	1140.8
77.14	1104.0	1140.8
77.15	1151.0	1140.9
77.16	1232.0	1140.9
77.17	1196.0	1141.0
77.18	1171.0	1141.0
77.19	1212.0	1141.1
77.2	1195.0	1141.1
77.21	1141.0	1141.1
77.22	1135.0	1141.2
77.23	1189.0	1141.2
77.24	1192.0	1141.3
77.25	1174.0	1141.3
77.26	1165.0	1141.3
77.27	1189.0	1141.4
77.28	1187.0	1141.4
77.29	1186.0	1141.5
77.3	1189.0	1141.5
77.31	1175.0	1141.6
77.32	1189.0	1141.6
77.33	1171.0	1141.6
77.34	1152.0	1141.7
77.35	1160.0	1141.7
77.36	1171.0	1141.8
77.37	1180.0	1141.8
77.38	1183.0	1141.8
77.39	1163.0	1141.9
77.4	1171.0	1141.9
77.41	1176.0	1141.9
77.42	1166.0	1142.0
77.43	1181.0	1142.0
77.44	1155.0	1142.1
77.45	1171.0	1142.1
77.46	1167.0	1142.1
77.47	1165.0	1142.2
77.48	1171.0	1142.2
77.49	1178.0	1142.3
77.5	1168.0	1142.3
77.51	1196.0	1142.3
77.52	1245.0	1142.4
77.53	1199.0	1142.4
77.54	1191.0	1142.4
77.55	1136.0	1142.5
77.56	1151.0	1142.5
77.57	1168.0	1142.5
77.58	1182.0	1142.6
77.59	1208.0	1142.6
77.6	1158.0	1142.7
77.61	1158.0	1142.7
77.62	1152.0	1142.7
77.63	1179.0	1142.8
77.64	1199.0	1142.8
77.65	1155.0	1142.8
77.66	1154.0	1142.9
77.67	1157.0	1142.9
77.68	1143.0	1142.9
77.69	1185.0	1143.0
77.7	1178.0	1143.0
77.71	1129.0	1143.0
77.72	1145.0	1143.1
77.73	1198.0	1143.1
77.74	1170.0	1143.1
77.75	1133.0	1143.2
77.76	1155.0	1143.2
77.77	1203.0	1143.2
77.78	1174.0	1143.3
77.79	1188.0	1143.3
77.8	1177.0	1143.3
77.81	1179.0	1143.4
77.82	1212.0	1143.4
77.83	1181.0	1143.4
77.84	1174.0	1143.5
77.85	1179.0	1143.5
77.86	1153.0	1143.5
77.87	1153.0	1143.6
77.88	1180.0	1143.6
77.89	1177.0	1143.6
77.9	1183.0	1143.7
77.91	1222.0	1143.7
77.92	1224.0	1143.7
77.93	1229.0	1143.8
77.94	1209.0	1143.8
77.95	1166.0	1143.8
77.96	1168.0	1143.8
77.97	1171.0	1143.9
77.98	1198.0	1143.9
77.99	1183.0	1143.9
78.0	1179.0	1144.0
78.01	1201.0	1144.0
78.02	1219.0	1144.0
78.03	1156.0	1144.0
78.04	1197.0	1144.1
78.05	1206.0	1144.1
78.06	1177.0	1144.1
78.07	1213.0	1144.2
78.08	1183.0	1144.2
78.09	1152.0	1144.2
78.1	1171.0	1144.2
78.11	1200.0	1144.3
78.12	1188.0	1144.3
78.13	1154.0	1144.3
78.14	1180.0	1144.3
78.15	1178.0	1144.4
78.16	1186.0	1144.4
78.17	1183.0	1144.4
78.18	1169.0	1144.4
78.19	1230.0	1144.5
78.2	1183.0	1144.5
78.21	1173.0	1144.5
78.22	1193.0	1144.5
78.23	1203.0	1144.6
78.24	1212.0	1144.6
78.25	1211.0	1144.6
78.26	1230.0	1144.6
78.27	1215.0	1144.7
78.28	1248.0	1144.7
78.29	1251.0	1144.7
78.3	1251.0	1144.7
78.31	1191.0	1144.7
78.32	1217.0	1144.8
78.33	1186.0	1144.8
78.34	1223.0	1144.8
78.35	1210.0	1144.8
78.36	1124.0	1144.9
78.37	1178.0	1144.9
78.38	1202.0	1144.9
78.39	1172.0	1144.9
78.4	1195.0	1144.9
78.41	1215.0	1145.0
78.42	1248.0	1145.0
78.43	1205.0	1145.0
78.44	1227.0	1145.0
78.45	1220.0	1145.0
78.46	1220.0	1145.1
78.47	1203.0	1145.1
78.48	1153.0	1145.1
78.49	1132.0	1145.1
78.5	1152.0	1145.1
78.51	1193.0	1145.1
78.52	1228.0	1145.2
78.53	1172.0	1145.2
78.54	1166.0	1145.2
78.55	1177.0	1145.2
78.56	1206.0	1145.2
78.57	1239.0	1145.2
78.58	1208.0	1145.3
78.59	1187.0	1145.3
78.6	1178.0	1145.3
78.61	1170.0	1145.3
78.62	1175.0	1145.3
78.63	1160.0	1145.3
78.64	1204.0	1145.3
78.65	1171.0	1145.4
78.66	1173.0	1145.4
78.67	1164.0	1145.4
78.68	1160.0	1145.4
78.69	1145.0	1145.4
78.7	1133.0	1145.4
78.71	1109.0	1145.4
78.72	1171.0	1145.5
78.73	1206.0	1145.5
78.74	1200.0	1145.5
78.75	1203.0	1145.5
78.76	1199.0	1145.5
78.77	1190.0	1145.5
78.78	1208.0	1145.5
78.79	1220.0	1145.5
78.8	1169.0	1145.5
78.81	1164.0	1145.5
78.82	1210.0	1145.6
78.83	1216.0	1145.6
78.84	1221.0	1145.6
78.85	1238.0	1145.6
78.86	1206.0	1145.6
78.87	1161.0	1145.6
78.88	1177.0	1145.6
78.89	1194.0	1145.6
78.9	1188.0	1145.6
78.91	1162.0	1145.6
78.92	1171.0	1145.6
78.93	1185.0	1145.6
78.94	1126.0	1145.6
78.95	1116.0	1145.7
78.96	1140.0	1145.7
78.97	1170.0	1145.7
78.98	1180.0	1145.7
78.99	1196.0	1145.7
79.0	1175.0	1145.7
79.01	1152.0	1145.7
79.02	1137.0	1145.7
79.03	1189.0	1145.7
79.04	1184.0	1145.7
79.05	1159.0	1145.7
79.06	1136.0	1145.7
79.07	1169.0	1145.7
79.08	1169.0	1145.7
79.09	1160.0	1145.7
79.1	1152.0	1145.7
79.11	1130.0	1145.7
79.12	1163.0	1145.7
79.13	1197.0	1145.7
79.14	1211.0	1145.7
79.15	1207.0	1145.7
79.16	1198.0	1145.7
79.17	1148.0	1145.7
79.18	1159.0	1145.7
79.19	1163.0	1145.7
79.2	1180.0	1145.7
79.21	1177.0	1145.7
79.22	1168.0	1145.7
79.23	1129.0	1145.7
79.24	1163.0	1145.7
79.25	1183.0	1145.7
79.26	1215.0	1145.7
79.27	1177.0	1145.7
79.28	1150.0	1145.7
79.29	1141.0	1145.7
79.3	1197.0	1145.7
79.31	1189.0	1145.7
79.32	1175.0	1145.7
79.33	1160.0	1145.7
79.34	1162.0	1145.7
79.35	1187.0	1145.7
79.36	1197.0	1145.7
79.37	1168.0	1145.7
79.38	1160.0	1145.7
79.39	1163.0	1145.7
79.4	1204.0	1145.7
79.41	1217.0	1145.7
79.42	1198.0	1145.7
79.43	1177.0	1145.7
79.44	1186.0	1145.7
79.45	1172.0	1145.7
79.46	1189.0	1145.7
79.47	1195.0	1145.7
79.48	1184.0	1145.7
79.49	1182.0	1145.7
79.5	1187.0	1145.7
79.51	1183.0	1145.7
79.52	1180.0	1145.7
79.53	1187.0	1145.7
79.54	1173.0	1145.6
79.55	1174.0	1145.6
79.56	1180.0	1145.6
79.57	1227.0	1145.6
79.58	1205.0	1145.6
79.59	1192.0	1145.6
79.6	1206.0	1145.6
79.61	1231.0	1145.6
79.62	1164.0	1145.6
79.63	1181.0	1145.6
79.64	1221.0	1145.6
79.65	1191.0	1145.6
79.66	1209.0	1145.6
79.67	1180.0	1145.6
79.68	1190.0	1145.6
79.69	1186.0	1145.5
79.7	1198.0	1145.5
79.71	1163.0	1145.5
79.72	1173.0	1145.5
79.73	1216.0	1145.5
79.74	1253.0	1145.5
79.75	1213.0	1145.5
79.76	1201.0	1145.5
79.77	1189.0	1145.5
79.78	1174.0	1145.5
79.79	1214.0	1145.5
79.8	1215.0	1145.4
79.81	1205.0	1145.4
79.82	1199.0	1145.4
79.83	1200.0	1145.4
79.84	1182.0	1145.4
79.85	1201.0	1145.4
79.86	1222.0	1145.4
79.87	1215.0	1145.4
79.88	1180.0	1145.4
79.89	1129.0	1145.4
79.9	1174.0	1145.3
79.91	1203.0	1145.3
79.92	1184.0	1145.3
79.93	1197.0	1145.3
79.94	1165.0	1145.3
79.95	1155.0	1145.3
79.96	1171.0	1145.3
79.97	1196.0	1145.3
79.98	1191.0	1145.3
79.99	1204.0	1145.2
80.0	1196.0	1145.2
80.01	1181.0	1145.2
80.02	1231.0	1145.2
80.03	1257.0	1145.2
80.04	1223.0	1145.2
80.05	1206.0	1145.2
80.06	1217.0	1145.2
80.07	1241.0	1145.2
80.08	1227.0	1145.1
80.09	1183.0	1145.1
80.1	1204.0	1145.1
80.11	1231.0	1145.1
80.12	1206.0	1145.1
80.13	1201.0	1145.1
80.14	1237.0	1145.1
80.15	1264.0	1145.1
80.16	1260.0	1145.0
80.17	1223.0	1145.0
80.18	1229.0	1145.0
80.19	1268.0	1145.0
80.2	1238.0	1145.0
80.21	1228.0	1145.0
80.22	1212.0	1145.0
80.23	1217.0	1144.9
80.24	1272.0	1144.9
80.25	1237.0	1144.9
80.26	1219.0	1144.9
80.27	1238.0	1144.9
80.28	1255.0	1144.9
80.29	1237.0	1144.9
80.3	1242.0	1144.8
80.31	1239.0	1144.8
80.32	1257.0	1144.8
80.33	1248.0	1144.8
80.34	1252.0	1144.8
80.35	1243.0	1144.8
80.36	1231.0	1144.8
80.37	1218.0	1144.7
80.38	1271.0	1144.7
80.39	1245.0	1144.7
80.4	1252.0	1144.7
80.41	1268.0	1144.7
80.42	1224.0	1144.7
80.43	1223.0	1144.7
80.44	1221.0	1144.6
80.45	1242.0	1144.6
80.46	1220.0	1144.6
80.47	1268.0	1144.6
80.48	1280.0	1144.6
80.49	1247.0	1144.6
80.5	1211.0	1144.6
80.51	1255.0	1144.5
80.52	1262.0	1144.5
80.53	1300.0	1144.5
80.54	1263.0	1144.5
80.55	1257.0	1144.5
80.56	1252.0	1144.5
80.57	1209.0	1144.5
80.58	1215.0	1144.4
80.59	1232.0	1144.4
80.6	1235.0	1144.4
80.61	1242.0	1144.4
80.62	1230.0	1144.4
80.63	1242.0	1144.4
80.64	1240.0	1144.3
80.65	1236.0	1144.3
80.66	1223.0	1144.3
80.67	1250.0	1144.3
80.68	1262.0	1144.3
80.69	1221.0	1144.3
80.7	1249.0	1144.3
80.71	1216.0	1144.2
80.72	1225.0	1144.2
80.73	1234.0	1144.2
80.74	1215.0	1144.2
80.75	1234.0	1144.2
80.76	1280.0	1144.2
80.77	1246.0	1144.1
80.78	1203.0	1144.1
80.79	1227.0	1144.1
80.8	1257.0	1144.1
80.81	1256.0	1144.1
80.82	1237.0	1144.1
80.83	1235.0	1144.1
80.84	1227.0	1144.0
80.85	1238.0	1144.0
80.86	1262.0	1144.0
80.87	1260.0	1144.0
80.88	1243.0	1144.0
80.89	1256.0	1144.0
80.9	1244.0	1143.9
80.91	1203.0	1143.9
80.92	1227.0	1143.9
80.93	1241.0	1143.9
80.94	1244.0	1143.9
80.95	1214.0	1143.9
80.96	1255.0	1143.9
80.97	1260.0	1143.8
80.98	1241.0	1143.8
80.99	1230.0	1143.8
81.0	1211.0	1143.8
81.01	1213.0	1143.8
81.02	1225.0	1143.8
81.03	1246.0	1143.8
81.04	1245.0	1143.7
81.05	1228.0	1143.7
81.06	1230.0	1143.7
81.07	1236.0	1143.7
81.08	1272.0	1143.7
81.09	1241.0	1143.7
81.1	1218.0	1143.7
81.11	1217.0	1143.6
81.12	1254.0	1143.6
81.13	1223.0	1143.6
81.14	1191.0	1143.6
81.15	1189.0	1143.6
81.16	1232.0	1143.6
81.17	1244.0	1143.6
81.18	1220.0	1143.5
81.19	1218.0	1143.5
81.2	1234.0	1143.5
81.21	1208.0	1143.5
81.22	1225.0	1143.5
81.23	1242.0	1143.5
81.24	1232.0	1143.5
81.25	1228.0	1143.4
81.26	1231.0	1143.4
81.27	1198.0	1143.4
81.28	1241.0	1143.4
81.29	1229.0	1143.4
81.3	1197.0	1143.4
81.31	1206.0	1143.4
81.32	1196.0	1143.3
81.33	1161.0	1143.3
81.34	1211.0	1143.3
81.35	1229.0	1143.3
81.36	1249.0	1143.3
81.37	1234.0	1143.3
81.38	1250.0	1143.3
81.39	1256.0	1143.3
81.4	1228.0	1143.2
81.41	1220.0	1143.2
81.42	1226.0	1143.2
81.43	1259.0	1143.2
81.44	1244.0	1143.2
81.45	1199.0	1143.2
81.46	1181.0	1143.2
81.47	1179.0	1143.2
81.48	1201.0	1143.1
81.49	1206.0	1143.1
81.5	1240.0	1143.1
81.51	1214.0	1143.1
81.52	1194.0	1143.1
81.53	1211.0	1143.1
81.54	1210.0	1143.1
81.55	1202.0	1143.1
81.56	1229.0	1143.1
81.57	1226.0	1143.0
81.58	1190.0	1143.0
81.59	1210.0	1143.0
81.6	1212.0	1143.0
81.61	1193.0	1143.0
81.62	1225.0	1143.0
81.63	1244.0	1143.0
81.64	1224.0	1143.0
81.65	1239.0	1143.0
81.66	1202.0	1142.9
81.67	1188.0	1142.9
81.68	1202.0	1142.9
81.69	1215.0	1142.9
81.7	1202.0	1142.9
81.71	1195.0	1142.9
81.72	1164.0	1142.9
81.73	1203.0	1142.9
81.74	1199.0	1142.9
81.75	1189.0	1142.9
81.76	1200.0	1142.9
81.77	1199.0	1142.8
81.78	1161.0	1142.8
81.79	1192.0	1142.8
81.8	1188.0	1142.8
81.81	1239.0	1142.8
81.82	1189.0	1142.8
81.83	1179.0	1142.8
81.84	1170.0	1142.8
81.85	1178.0	1142.8
81.86	1193.0	1142.8
81.87	1190.0	1142.8
81.88	1231.0	1142.8
81.89	1258.0	1142.8
81.9	1204.0	1142.7
81.91	1218.0	1142.7
81.92	1184.0	1142.7
81.93	1142.0	1142.7
81.94	1184.0	1142.7
81.95	1195.0	1142.7
81.96	1197.0	1142.7
81.97	1199.0	1142.7
81.98	1228.0	1142.7
81.99	1201.0	1142.7
82.0	1198.0	1142.7
82.01	1160.0	1142.7
82.02	1175.0	1142.7
82.03	1203.0	1142.7
82.04	1226.0	1142.7
82.05	1210.0	1142.7
82.06	1182.0	1142.7
82.07	1202.0	1142.7
82.08	1198.0	1142.7
82.09	1166.0	1142.6
82.1	1172.0	1142.6
82.11	1168.0	1142.6
82.12	1216.0	1142.6
82.13	1204.0	1142.6
82.14	1191.0	1142.6
82.15	1187.0	1142.6
82.16	1172.0	1142.6
82.17	1196.0	1142.6
82.18	1198.0	1142.6
82.19	1175.0	1142.6
82.2	1158.0	1142.6
82.21	1156.0	1142.6
82.22	1186.0	1142.6
82.23	1173.0	1142.6
82.24	1215.0	1142.6
82.25	1212.0	1142.6
82.26	1182.0	1142.6
82.27	1179.0	1142.6
82.28	1192.0	1142.6
82.29	1198.0	1142.6
82.3	1185.0	1142.6
82.31	1189.0	1142.6
82.32	1169.0	1142.6
82.33	1168.0	1142.6
82.34	1191.0	1142.6
82.35	1141.0	1142.6
82.36	1163.0	1142.6
82.37	1169.0	1142.6
82.38	1186.0	1142.6
82.39	1161.0	1142.6
82.4	1194.0	1142.6
82.41	1166.0	1142.6
82.42	1169.0	1142.6
82.43	1180.0	1142.6
82.44	1167.0	1142.6
82.45	1165.0	1142.6
82.46	1179.0	1142.6
82.47	1162.0	1142.7
82.48	1182.0	1142.7
82.49	1166.0	1142.7
82.5	1181.0	1142.7
82.51	1173.0	1142.7
82.52	1159.0	1142.7
82.53	1164.0	1142.7
82.54	1167.0	1142.7
82.55	1177.0	1142.7
82.56	1158.0	1142.7
82.57	1203.0	1142.7
82.58	1188.0	1142.7
82.59	1169.0	1142.7
82.6	1190.0	1142.7
82.61	1202.0	1142.7
82.62	1167.0	1142.7
82.63	1171.0	1142.7
82.64	1149.0	1142.8
82.65	1131.0	1142.8
82.66	1148.0	1142.8
82.67	1177.0	1142.8
82.68	1157.0	1142.8
82.69	1169.0	1142.8
82.7	1182.0	1142.8
82.71	1200.0	1142.8
82.72	1219.0	1142.8
82.73	1221.0	1142.8
82.74	1184.0	1142.9
82.75	1154.0	1142.9
82.76	1178.0	1142.9
82.77	1195.0	1142.9
82.78	1201.0	1142.9
82.79	1183.0	1142.9
82.8	1150.0	1142.9
82.81	1159.0	1142.9
82.82	1194.0	1142.9
82.83	1183.0	1143.0
82.84	1150.0	1143.0
82.85	1154.0	1143.0
82.86	1189.0	1143.0
82.87	1151.0	1143.0
82.88	1143.0	1143.0
82.89	1176.0	1143.0
82.9	1170.0	1143.1
82.91	1172.0	1143.1
82.92	1191.0	1143.1
82.93	1200.0	1143.1
82.94	1193.0	1143.1
82.95	1171.0	1143.1
82.96	1139.0	1143.2
82.97	1150.0	1143.2
82.98	1210.0	1143.2
82.99	1174.0	1143.2
83.0	1139.0	1143.2
83.01	1127.0	1143.2
83.02	1130.0	1143.3
83.03	1183.0	1143.3
83.04	1172.0	1143.3
83.05	1145.0	1143.3
83.06	1168.0	1143.3
83.07	1162.0	1143.4
83.08	1133.0	1143.4
83.09	1148.0	1143.4
83.1	1184.0	1143.4
83.11	1163.0	1143.4
83.12	1160.0	1143.5
83.13	1175.0	1143.5
83.14	1163.0	1143.5
83.15	1136.0	1143.5
83.16	1181.0	1143.5
83.17	1230.0	1143.6
83.18	1235.0	1143.6
83.19	1171.0	1143.6
83.2	1134.0	1143.6
83.21	1151.0	1143.7
83.22	1158.0	1143.7
83.23	1155.0	1143.7
83.24	1164.0	1143.7
83.25	1191.0	1143.8
83.26	1150.0	1143.8
83.27	1172.0	1143.8
83.28	1195.0	1143.8
83.29	1212.0	1143.9
83.3	1171.0	1143.9
83.31	1167.0	1143.9
83.32	1147.0	1143.9
83.33	1166.0	1144.0
83.34	1157.0	1144.0
83.35	1134.0	1144.0
83.36	1143.0	1144.1
83.37	1143.0	1144.1
83.38	1139.0	1144.1
83.39	1167.0	1144.1
83.4	1181.0	1144.2
83.41	1178.0	1144.2
83.42	1191.0	1144.2
83.43	1200.0	1144.3
83.44	1154.0	1144.3
83.45	1149.0	1144.3
83.46	1175.0	1144.3
83.47	1192.0	1144.4
83.48	1181.0	1144.4
83.49	1181.0	1144.4
83.5	1156.0	1144.5
83.51	1183.0	1144.5
83.52	1189.0	1144.5
83.53	1177.0	1144.6
83.54	1161.0	1144.6
83.55	1146.0	1144.6
83.56	1202.0	1144.7
83.57	1205.0	1144.7
83.58	1175.0	1144.7
83.59	1156.0	1144.8
83.6	1181.0	1144.8
83.61	1205.0	1144.8
83.62	1166.0	1144.9
83.63	1155.0	1144.9
83.64	1156.0	1144.9
83.65	1181.0	1145.0
83.66	1180.0	1145.0
83.67	1236.0	1145.0
83.68	1214.0	1145.1
83.69	1147.0	1145.1
83.7	1162.0	1145.1
83.71	1188.0	1145.2
83.72	1171.0	1145.2
83.73	1169.0	1145.3
83.74	1176.0	1145.3
83.75	1174.0	1145.3
83.76	1212.0	1145.4
83.77	1216.0	1145.4
83.78	1238.0	1145.4
83.79	1200.0	1145.5
83.8	1163.0	1145.5
83.81	1181.0	1145.6
83.82	1204.0	1145.6
83.83	1179.0	1145.6
83.84	1194.0	1145.7
83.85	1194.0	1145.7
83.86	1190.0	1145.8
83.87	1233.0	1145.8
83.88	1166.0	1145.8
83.89	1203.0	1145.9
83.9	1211.0	1145.9
83.91	1186.0	1146.0
83.92	1191.0	1146.0
83.93	1166.0	1146.0
83.94	1176.0	1146.1
83.95	1192.0	1146.1
83.96	1196.0	1146.2
83.97	1191.0	1146.2
83.98	1213.0	1146.2
83.99	1231.0	1146.3
84.0	1235.0	1146.3
84.01	1232.0	1146.4
84.02	1220.0	1146.4
84.03	1207.0	1146.5
84.04	1219.0	1146.5
84.05	1249.0	1146.5
84.06	1249.0	1146.6
84.07	1200.0	1146.6
84.08	1183.0	1146.7
84.09	1188.0	1146.7
84.1	1194.0	1146.8
84.11	1202.0	1146.8
84.12	1191.0	1146.9
84.13	1198.0	1146.9
84.14	1202.0	1146.9
84.15	1214.0	1147.0
84.16	1224.0	1147.0
84.17	1230.0	1147.1
84.18	1204.0	1147.1
84.19	1204.0	1147.2
84.2	1226.0	1147.2
84.21	1229.0	1147.3
84.22	1245.0	1147.3
84.23	1235.0	1147.4
84.24	1251.0	1147.4
84.25	1242.0	1147.5
84.26	1191.0	1147.5
84.27	1219.0	1147.5
84.28	1215.0	1147.6
84.29	1197.0	1147.6
84.3	1211.0	1147.7
84.31	1213.0	1147.7
84.32	1240.0	1147.8
84.33	1267.0	1147.8
84.34	1254.0	1147.9
84.35	1225.0	1147.9
84.36	1217.0	1148.0
84.37	1200.0	1148.0
84.38	1184.0	1148.1
84.39	1189.0	1148.1
84.4	1213.0	1148.2
84.41	1258.0	1148.2
84.42	1233.0	1148.3
84.43	1215.0	1148.3
84.44	1222.0	1148.4
84.45	1220.0	1148.4
84.46	1250.0	1148.5
84.47	1256.0	1148.5
84.48	1224.0	1148.6
84.49	1224.0	1148.6
84.5	1207.0	1148.7
84.51	1216.0	1148.7
84.52	1248.0	1148.8
84.53	1248.0	1148.8
84.54	1234.0	1148.9
84.55	1252.0	1148.9
84.56	1223.0	1149.0
84.57	1206.0	1149.0
84.58	1223.0	1149.1
84.59	1242.0	1149.1
84.6	1214.0	1149.2
84.61	1199.0	1149.2
84.62	1199.0	1149.3
84.63	1194.0	1149.3
84.64	1204.0	1149.4
84.65	1195.0	1149.5
84.66	1224.0	1149.5
84.67	1269.0	1149.6
84.68	1278.0	1149.6
84.69	1240.0	1149.7
84.7	1234.0	1149.7
84.71	1164.0	1149.8
84.72	1163.0	1149.8
84.73	1159.0	1149.9
84.74	1197.0	1149.9
84.75	1250.0	1150.0
84.76	1275.0	1150.0
84.77	1230.0	1150.1
84.78	1219.0	1150.2
84.79	1257.0	1150.2
84.8	1245.0	1150.3
84.81	1220.0	1150.3
84.82	1253.0	1150.4
84.83	1267.0	1150.4
84.84	1201.0	1150.5
84.85	1193.0	1150.5
84.86	1220.0	1150.6
84.87	1222.0	1150.6
84.88	1257.0	1150.7
84.89	1243.0	1150.8
84.9	1244.0	1150.8
84.91	1274.0	1150.9
84.92	1284.0	1150.9
84.93	1248.0	1151.0
84.94	1283.0	1151.0
84.95	1266.0	1151.1
84.96	1262.0	1151.1
84.97	1251.0	1151.2
84.98	1191.0	1151.3
84.99	1175.0	1151.3
85.0	1195.0	1151.4
85.01	1195.0	1151.4
85.02	1192.0	1151.5
85.03	1201.0	1151.5
85.04	1230.0	1151.6
85.05	1210.0	1151.7
85.06	1224.0	1151.7
85.07	1211.0	1151.8
85.08	1211.0	1151.8
85.09	1207.0	1151.9
85.1	1222.0	1151.9
85.11	1195.0	1152.0
85.12	1181.0	1152.1
85.13	1205.0	1152.1
85.14	1198.0	1152.2
85.15	1214.0	1152.2
85.16	1241.0	1152.3
85.17	1220.0	1152.3
85.18	1222.0	1152.4
85.19	1237.0	1152.5
85.2	1260.0	1152.5
85.21	1263.0	1152.6
85.22	1256.0	1152.6
85.23	1242.0	1152.7
85.24	1253.0	1152.7
85.25	1290.0	1152.8
85.26	1260.0	1152.9
85.27	1240.0	1152.9
85.28	1272.0	1153.0
85.29	1250.0	1153.0
85.3	1244.0	1153.1
85.31	1259.0	1153.2
85.32	1274.0	1153.2
85.33	1271.0	1153.3
85.34	1270.0	1153.3
85.35	1299.0	1153.4
85.36	1278.0	1153.5
85.37	1265.0	1153.5
85.38	1273.0	1153.6
85.39	1235.0	1153.6
85.4	1238.0	1153.7
85.41	1240.0	1153.7
85.42	1246.0	1153.8
85.43	1254.0	1153.9
85.44	1237.0	1153.9
85.45	1207.0	1154.0
85.46	1207.0	1154.0
85.47	1226.0	1154.1
85.48	1236.0	1154.2
85.49	1259.0	1154.2
85.5	1236.0	1154.3
85.51	1238.0	1154.3
85.52	1265.0	1154.4
85.53	1284.0	1154.5
85.54	1270.0	1154.5
85.55	1224.0	1154.6
85.56	1240.0	1154.6
85.57	1256.0	1154.7
85.58	1220.0	1154.8
85.59	1223.0	1154.8
85.6	1244.0	1154.9
85.61	1234.0	1154.9
85.62	1247.0	1155.0
85.63	1252.0	1155.1
85.64	1232.0	1155.1
85.65	1201.0	1155.2
85.66	1238.0	1155.2
85.67	1248.0	1155.3
85.68	1243.0	1155.4
85.69	1236.0	1155.4
85.7	1242.0	1155.5
85.71	1213.0	1155.5
85.72	1223.0	1155.6
85.73	1225.0	1155.7
85.74	1247.0	1155.7
85.75	1242.0	1155.8
85.76	1214.0	1155.8
85.77	1280.0	1155.9
85.78	1268.0	1156.0
85.79	1232.0	1156.0
85.8	1255.0	1156.1
85.81	1251.0	1156.1
85.82	1253.0	1156.2
85.83	1254.0	1156.3
85.84	1252.0	1156.3
85.85	1242.0	1156.4
85.86	1251.0	1156.4
85.87	1243.0	1156.5
85.88	1193.0	1156.6
85.89	1193.0	1156.6
85.9	1215.0	1156.7
85.91	1246.0	1156.7
85.92	1253.0	1156.8
85.93	1257.0	1156.9
85.94	1242.0	1156.9
85.95	1244.0	1157.0
85.96	1264.0	1157.0
85.97	1224.0	1157.1
85.98	1238.0	1157.2
85.99	1225.0	1157.2
86.0	1223.0	1157.3
86.01	1235.0	1157.3
86.02	1260.0	1157.4
86.03	1242.0	1157.5
86.04	1249.0	1157.5
86.05	1274.0	1157.6
86.06	1295.0	1157.6
86.07	1274.0	1157.7
86.08	1244.0	1157.7
86.09	1263.0	1157.8
86.1	1240.0	1157.9
86.11	1206.0	1157.9
86.12	1194.0	1158.0
86.13	1200.0	1158.0
86.14	1203.0	1158.1
86.15	1195.0	1158.2
86.16	1198.0	1158.2
86.17	1218.0	1158.3
86.18	1270.0	1158.3
86.19	1230.0	1158.4
86.2	1215.0	1158.5
86.21	1233.0	1158.5
86.22	1212.0	1158.6
86.23	1201.0	1158.6
86.24	1218.0	1158.7
86.25	1283.0	1158.8
86.26	1276.0	1158.8
86.27	1224.0	1158.9
86.28	1227.0	1158.9
86.29	1252.0	1159.0
86.3	1275.0	1159.1
86.31	1264.0	1159.1
86.32	1231.0	1159.2
86.33	1224.0	1159.2
86.34	1226.0	1159.3
86.35	1225.0	1159.3
86.36	1245.0	1159.4
86.37	1271.0	1159.5
86.38	1285.0	1159.5
86.39	1292.0	1159.6
86.4	1281.0	1159.6
86.41	1274.0	1159.7
86.42	1240.0	1159.8
86.43	1216.0	1159.8
86.44	1276.0	1159.9
86.45	1267.0	1159.9
86.46	1237.0	1160.0
86.47	1240.0	1160.0
86.48	1219.0	1160.1
86.49	1233.0	1160.2
86.5	1237.0	1160.2
86.51	1216.0	1160.3
86.52	1221.0	1160.3
86.53	1250.0	1160.4
86.54	1253.0	1160.4
86.55	1246.0	1160.5
86.56	1227.0	1160.6
86.57	1199.0	1160.6
86.58	1249.0	1160.7
86.59	1260.0	1160.7
86.6	1321.0	1160.8
86.61	1298.0	1160.8
86.62	1208.0	1160.9
86.63	1215.0	1161.0
86.64	1239.0	1161.0
86.65	1276.0	1161.1
86.66	1250.0	1161.1
86.67	1201.0	1161.2
86.68	1225.0	1161.2
86.69	1245.0	1161.3
86.7	1234.0	1161.3
86.71	1236.0	1161.4
86.72	1228.0	1161.5
86.73	1228.0	1161.5
86.74	1249.0	1161.6
86.75	1254.0	1161.6
86.76	1213.0	1161.7
86.77	1238.0	1161.7
86.78	1270.0	1161.8
86.79	1232.0	1161.8
86.8	1235.0	1161.9
86.81	1253.0	1162.0
86.82	1260.0	1162.0
86.83	1242.0	1162.1
86.84	1243.0	1162.1
86.85	1232.0	1162.2
86.86	1225.0	1162.2
86.87	1225.0	1162.3
86.88	1247.0	1162.3
86.89	1234.0	1162.4
86.9	1212.0	1162.4
86.91	1218.0	1162.5
86.92	1222.0	1162.6
86.93	1215.0	1162.6
86.94	1247.0	1162.7
86.95	1270.0	1162.7
86.96	1249.0	1162.8
86.97	1251.0	1162.8
86.98	1251.0	1162.9
86.99	1269.0	1162.9
87.0	1311.0	1163.0
87.01	1273.0	1163.0
87.02	1211.0	1163.1
87.03	1222.0	1163.1
87.04	1255.0	1163.2
87.05	1259.0	1163.2
87.06	1273.0	1163.3
87.07	1233.0	1163.3
87.08	1246.0	1163.4
87.09	1269.0	1163.4
87.1	1239.0	1163.5
87.11	1214.0	1163.5
87.12	1218.0	1163.6
87.13	1227.0	1163.6
87.14	1244.0	1163.7
87.15	1251.0	1163.7
87.16	1256.0	1163.8
87.17	1224.0	1163.8
87.18	1205.0	1163.9
87.19	1218.0	1163.9
87.2	1265.0	1164.0
87.21	1285.0	1164.0
87.22	1256.0	1164.1
87.23	1232.0	1164.1
87.24	1228.0	1164.2
87.25	1230.0	1164.2
87.26	1241.0	1164.3
87.27	1277.0	1164.3
87.28	1272.0	1164.4
87.29	1197.0	1164.4
87.3	1225.0	1164.5
87.31	1239.0	1164.5
87.32	1242.0	1164.6
87.33	1234.0	1164.6
87.34	1220.0	1164.7
87.35	1269.0	1164.7
87.36	1260.0	1164.8
87.37	1263.0	1164.8
87.38	1274.0	1164.9
87.39	1260.0	1164.9
87.4	1272.0	1165.0
87.41	1258.0	1165.0
87.42	1242.0	1165.1
87.43	1201.0	1165.1
87.44	1205.0	1165.1
87.45	1246.0	1165.2
87.46	1240.0	1165.2
87.47	1281.0	1165.3
87.48	1290.0	1165.3
87.49	1258.0	1165.4
87.5	1228.0	1165.4
87.51	1219.0	1165.5
87.52	1227.0	1165.5
87.53	1213.0	1165.6
87.54	1216.0	1165.6
87.55	1259.0	1165.6
87.56	1251.0	1165.7
87.57	1232.0	1165.7
87.58	1237.0	1165.8
87.59	1228.0	1165.8
87.6	1209.0	1165.9
87.61	1216.0	1165.9
87.62	1215.0	1165.9
87.63	1223.0	1166.0
87.64	1247.0	1166.0
87.65	1231.0	1166.1
87.66	1259.0	1166.1
87.67	1304.0	1166.2
87.68	1286.0	1166.2
87.69	1225.0	1166.2
87.7	1226.0	1166.3
87.71	1243.0	1166.3
87.72	1213.0	1166.4
87.73	1226.0	1166.4
87.74	1225.0	1166.4
87.75	1200.0	1166.5
87.76	1216.0	1166.5
87.77	1223.0	1166.6
87.78	1237.0	1166.6
87.79	1257.0	1166.6
87.8	1249.0	1166.7
87.81	1221.0	1166.7
87.82	1223.0	1166.8
87.83	1245.0	1166.8
87.84	1268.0	1166.8
87.85	1262.0	1166.9
87.86	1222.0	1166.9
87.87	1244.0	1167.0
87.88	1246.0	1167.0
87.89	1228.0	1167.0
87.9	1232.0	1167.1
87.91	1205.0	1167.1
87.92	1209.0	1167.1
87.93	1226.0	1167.2
87.94	1192.0	1167.2
87.95	1212.0	1167.2
87.96	1202.0	1167.3
87.97	1183.0	1167.3
87.98	1204.0	1167.4
87.99	1212.0	1167.4
88.0	1216.0	1167.4
88.01	1243.0	1167.5
88.02	1240.0	1167.5
88.03	1219.0	1167.5
88.04	1234.0	1167.6
88.05	1260.0	1167.6
88.06	1211.0	1167.6
88.07	1205.0	1167.7
88.08	1230.0	1167.7
88.09	1212.0	1167.7
88.1	1202.0	1167.8
88.11	1234.0	1167.8
88.12	1218.0	1167.8
88.13	1212.0	1167.9
88.14	1218.0	1167.9
88.15	1196.0	1167.9
88.16	1209.0	1167.9
88.17	1246.0	1168.0
88.18	1223.0	1168.0
88.19	1205.0	1168.0
88.2	1206.0	1168.1
88.21	1206.0	1168.1
88.22	1217.0	1168.1
88.23	1235.0	1168.2
88.24	1247.0	1168.2
88.25	1243.0	1168.2
88.26	1218.0	1168.2
88.27	1224.0	1168.3
88.28	1227.0	1168.3
88.29	1238.0	1168.3
88.3	1221.0	1168.4
88.31	1223.0	1168.4
88.32	1212.0	1168.4
88.33	1205.0	1168.4
88.34	1228.0	1168.5
88.35	1230.0	1168.5
88.36	1207.0	1168.5
88.37	1216.0	1168.5
88.38	1216.0	1168.6
88.39	1223.0	1168.6
88.4	1208.0	1168.6
88.41	1195.0	1168.6
88.42	1203.0	1168.7
88.43	1222.0	1168.7
88.44	1226.0	1168.7
88.45	1213.0	1168.7
88.46	1216.0	1168.8
88.47	1202.0	1168.8
88.48	1201.0	1168.8
88.49	1237.0	1168.8
88.5	1246.0	1168.8
88.51	1246.0	1168.9
88.52	1208.0	1168.9
88.53	1205.0	1168.9
88.54	1221.0	1168.9
88.55	1216.0	1168.9
88.56	1243.0	1169.0
88.57	1242.0	1169.0
88.58	1207.0	1169.0
88.59	1217.0	1169.0
88.6	1222.0	1169.0
88.61	1225.0	1169.1
88.62	1222.0	1169.1
88.63	1235.0	1169.1
88.64	1223.0	1169.1
88.65	1207.0	1169.1
88.66	1214.0	1169.2
88.67	1228.0	1169.2
88.68	1236.0	1169.2
88.69	1234.0	1169.2
88.7	1203.0	1169.2
88.71	1206.0	1169.2
88.72	1208.0	1169.2
88.73	1180.0	1169.3
88.74	1181.0	1169.3
88.75	1184.0	1169.3
88.76	1194.0	1169.3
88.77	1201.0	1169.3
88.78	1175.0	1169.3
88.79	1182.0	1169.3
88.8	1202.0	1169.4
88.81	1187.0	1169.4
88.82	1177.0	1169.4
88.83	1201.0	1169.4
88.84	1208.0	1169.4
88.85	1203.0	1169.4
88.86	1167.0	1169.4
88.87	1144.0	1169.4
88.88	1166.0	1169.4
88.89	1204.0	1169.5
88.9	1221.0	1169.5
88.91	1241.0	1169.5
88.92	1238.0	1169.5
88.93	1207.0	1169.5
88.94	1195.0	1169.5
88.95	1243.0	1169.5
88.96	1251.0	1169.5
88.97	1259.0	1169.5
88.98	1249.0	1169.5
88.99	1232.0	1169.5
89.0	1205.0	1169.5
89.01	1165.0	1169.6
89.02	1190.0	1169.6
89.03	1198.0	1169.6
89.04	1172.0	1169.6
89.05	1182.0	1169.6
89.06	1190.0	1169.6
89.07	1184.0	1169.6
89.08	1177.0	1169.6
89.09	1177.0	1169.6
89.1	1191.0	1169.6
89.11	1197.0	1169.6
89.12	1188.0	1169.6
89.13	1197.0	1169.6
89.14	1219.0	1169.6
89.15	1220.0	1169.6
89.16	1197.0	1169.6
89.17	1189.0	1169.6
89.18	1200.0	1169.6
89.19	1214.0	1169.6
89.2	1198.0	1169.6
89.21	1182.0	1169.6
89.22	1189.0	1169.6
89.23	1201.0	1169.6
89.24	1202.0	1169.6
89.25	1207.0	1169.6
89.26	1232.0	1169.6
89.27	1246.0	1169.6
89.28	1221.0	1169.6
89.29	1200.0	1169.6
89.3	1189.0	1169.6
89.31	1173.0	1169.6
89.32	1193.0	1169.6
89.33	1205.0	1169.6
89.34	1209.0	1169.6
89.35	1192.0	1169.6
89.36	1223.0	1169.6
89.37	1230.0	1169.6
89.38	1220.0	1169.6
89.39	1178.0	1169.6
89.4	1163.0	1169.6
89.41	1193.0	1169.6
89.42	1209.0	1169.5
89.43	1224.0	1169.5
89.44	1212.0	1169.5
89.45	1226.0	1169.5
89.46	1219.0	1169.5
89.47	1182.0	1169.5
89.48	1169.0	1169.5
89.49	1172.0	1169.5
89.5	1163.0	1169.5
89.51	1168.0	1169.5
89.52	1187.0	1169.5
89.53	1185.0	1169.5
89.54	1212.0	1169.5
89.55	1257.0	1169.4
89.56	1208.0	1169.4
89.57	1191.0	1169.4
89.58	1220.0	1169.4
89.59	1245.0	1169.4
89.6	1276.0	1169.4
89.61	1265.0	1169.4
89.62	1207.0	1169.4
89.63	1187.0	1169.4
89.64	1198.0	1169.4
89.65	1218.0	1169.3
89.66	1231.0	1169.3
89.67	1209.0	1169.3
89.68	1212.0	1169.3
89.69	1224.0	1169.3
89.7	1203.0	1169.3
89.71	1196.0	1169.3
89.72	1193.0	1169.3
89.73	1202.0	1169.2
89.74	1221.0	1169.2
89.75	1232.0	1169.2
89.76	1212.0	1169.2
89.77	1184.0	1169.2
89.78	1182.0	1169.2
89.79	1234.0	1169.2
89.8	1221.0	1169.1
89.81	1185.0	1169.1
89.82	1191.0	1169.1
89.83	1203.0	1169.1
89.84	1178.0	1169.1
89.85	1178.0	1169.1
89.86	1209.0	1169.0
89.87	1214.0	1169.0
89.88	1201.0	1169.0
89.89	1218.0	1169.0
89.9	1229.0	1169.0
89.91	1229.0	1169.0
89.92	1222.0	1168.9
89.93	1213.0	1168.9
89.94	1189.0	1168.9
89.95	1182.0	1168.9
89.96	1197.0	1168.9
89.97	1219.0	1168.8
89.98	1230.0	1168.8
89.99	1178.0	1168.8
90.0	1177.0	1168.8
90.01	1220.0	1168.8
90.02	1234.0	1168.7
90.03	1212.0	1168.7
90.04	1198.0	1168.7
90.05	1203.0	1168.7
90.06	1204.0	1168.7
90.07	1205.0	1168.6
90.08	1218.0	1168.6
90.09	1230.0	1168.6
90.1	1245.0	1168.6
90.11	1222.0	1168.5
90.12	1184.0	1168.5
90.13	1197.0	1168.5
90.14	1215.0	1168.5
90.15	1200.0	1168.5
90.16	1192.0	1168.4
90.17	1205.0	1168.4
90.18	1220.0	1168.4
90.19	1238.0	1168.4
90.2	1230.0	1168.3
90.21	1211.0	1168.3
90.22	1220.0	1168.3
90.23	1203.0	1168.3
90.24	1211.0	1168.2
90.25	1217.0	1168.2
90.26	1202.0	1168.2
90.27	1232.0	1168.2
90.28	1246.0	1168.1
90.29	1203.0	1168.1
90.3	1180.0	1168.1
90.31	1194.0	1168.1
90.32	1221.0	1168.0
90.33	1206.0	1168.0
90.34	1190.0	1168.0
90.35	1217.0	1168.0
90.36	1233.0	1167.9
90.37	1216.0	1167.9
90.38	1194.0	1167.9
90.39	1211.0	1167.8
90.4	1222.0	1167.8
90.41	1223.0	1167.8
90.42	1207.0	1167.8
90.43	1181.0	1167.7
90.44	1210.0	1167.7
90.45	1216.0	1167.7
90.46	1201.0	1167.6
90.47	1215.0	1167.6
90.48	1211.0	1167.6
90.49	1197.0	1167.6
90.5	1182.0	1167.5
90.51	1176.0	1167.5
90.52	1177.0	1167.5
90.53	1200.0	1167.4
90.54	1208.0	1167.4
90.55	1209.0	1167.4
90.56	1244.0	1167.4
90.57	1234.0	1167.3
90.58	1197.0	1167.3
90.59	1190.0	1167.3
90.6	1181.0	1167.2
90.61	1186.0	1167.2
90.62	1216.0	1167.2
90.63	1206.0	1167.1
90.64	1207.0	1167.1
90.65	1231.0	1167.1
90.66	1228.0	1167.0
90.67	1225.0	1167.0
90.68	1226.0	1167.0
90.69	1218.0	1166.9
90.7	1207.0	1166.9
90.71	1188.0	1166.9
90.72	1186.0	1166.8
90.73	1189.0	1166.8
90.74	1191.0	1166.8
90.75	1192.0	1166.7
90.76	1171.0	1166.7
90.77	1161.0	1166.7
90.78	1174.0	1166.6
90.79	1200.0	1166.6
90.8	1214.0	1166.6
90.81	1212.0	1166.5
90.82	1236.0	1166.5
90.83	1247.0	1166.5
90.84	1222.0	1166.4
90.85	1228.0	1166.4
90.86	1233.0	1166.4
90.87	1219.0	1166.3
90.88	1204.0	1166.3
90.89	1201.0	1166.3
90.9	1214.0	1166.2
90.91	1221.0	1166.2
90.92	1241.0	1166.2
90.93	1247.0	1166.1
90.94	1235.0	1166.1
90.95	1214.0	1166.1
90.96	1198.0	1166.0
90.97	1219.0	1166.0
90.98	1218.0	1165.9
90.99	1209.0	1165.9
91.0	1209.0	1165.9
91.01	1184.0	1165.8
91.02	1179.0	1165.8
91.03	1204.0	1165.8
91.04	1202.0	1165.7
91.05	1202.0	1165.7
91.06	1222.0	1165.6
91.07	1198.0	1165.6
91.08	1168.0	1165.6
91.09	1158.0	1165.5
91.1	1176.0	1165.5
91.11	1220.0	1165.5
91.12	1215.0	1165.4
91.13	1188.0	1165.4
91.14	1193.0	1165.3
91.15	1213.0	1165.3
91.16	1193.0	1165.3
91.17	1173.0	1165.2
91.18	1189.0	1165.2
91.19	1198.0	1165.2
91.2	1193.0	1165.1
91.21	1193.0	1165.1
91.22	1214.0	1165.0
91.23	1231.0	1165.0
91.24	1223.0	1165.0
91.25	1207.0	1164.9
91.26	1200.0	1164.9
91.27	1213.0	1164.8
91.28	1221.0	1164.8
91.29	1223.0	1164.8
91.3	1216.0	1164.7
91.31	1219.0	1164.7
91.32	1236.0	1164.6
91.33	1247.0	1164.6
91.34	1237.0	1164.6
91.35	1218.0	1164.5
91.36	1220.0	1164.5
91.37	1216.0	1164.4
91.38	1195.0	1164.4
91.39	1187.0	1164.4
91.4	1196.0	1164.3
91.41	1203.0	1164.3
91.42	1210.0	1164.2
91.43	1235.0	1164.2
91.44	1250.0	1164.2
91.45	1214.0	1164.1
91.46	1195.0	1164.1
91.47	1229.0	1164.0
91.48	1237.0	1164.0
91.49	1221.0	1164.0
91.5	1224.0	1163.9
91.51	1213.0	1163.9
91.52	1183.0	1163.8
91.53	1164.0	1163.8
91.54	1180.0	1163.7
91.55	1213.0	1163.7
91.56	1213.0	1163.7
91.57	1191.0	1163.6
91.58	1193.0	1163.6
91.59	1217.0	1163.5
91.6	1243.0	1163.5
91.61	1263.0	1163.5
91.62	1236.0	1163.4
91.63	1186.0	1163.4
91.64	1168.0	1163.3
91.65	1200.0	1163.3
91.66	1231.0	1163.2
91.67	1209.0	1163.2
91.68	1191.0	1163.2
91.69	1216.0	1163.1
91.7	1219.0	1163.1
91.71	1197.0	1163.0
91.72	1217.0	1163.0
91.73	1212.0	1162.9
91.74	1205.0	1162.9
91.75	1211.0	1162.9
91.76	1208.0	1162.8
91.77	1225.0	1162.8
91.78	1228.0	1162.7
91.79	1196.0	1162.7
91.8	1162.0	1162.6
91.81	1172.0	1162.6
91.82	1199.0	1162.6
91.83	1203.0	1162.5
91.84	1180.0	1162.5
91.85	1177.0	1162.4
91.86	1201.0	1162.4
91.87	1223.0	1162.3
91.88	1224.0	1162.3
91.89	1205.0	1162.3
91.9	1204.0	1162.2
91.91	1189.0	1162.2
91.92	1186.0	1162.1
91.93	1190.0	1162.1
91.94	1199.0	1162.0
91.95	1211.0	1162.0
91.96	1206.0	1162.0
91.97	1212.0	1161.9
91.98	1189.0	1161.9
91.99	1164.0	1161.8
92.0	1180.0	1161.8
92.01	1175.0	1161.7
92.02	1149.0	1161.7
92.03	1185.0	1161.7
92.04	1209.0	1161.6
92.05	1225.0	1161.6
92.06	1230.0	1161.5
92.07	1223.0	1161.5
92.08	1208.0	1161.4
92.09	1184.0	1161.4
92.1	1190.0	1161.4
92.11	1191.0	1161.3
92.12	1162.0	1161.3
92.13	1186.0	1161.2
92.14	1225.0	1161.2
92.15	1213.0	1161.1
92.16	1207.0	1161.1
92.17	1212.0	1161.0
92.18	1211.0	1161.0
92.19	1197.0	1161.0
92.2	1162.0	1160.9
92.21	1149.0	1160.9
92.22	1155.0	1160.8
92.23	1169.0	1160.8
92.24	1177.0	1160.7
92.25	1157.0	1160.7
92.26	1161.0	1160.7
92.27	1178.0	1160.6
92.28	1203.0	1160.6
92.29	1231.0	1160.5
92.3	1228.0	1160.5
92.31	1206.0	1160.4
92.32	1187.0	1160.4
92.33	1214.0	1160.3
92.34	1223.0	1160.3
92.35	1210.0	1160.3
92.36	1217.0	1160.2
92.37	1201.0	1160.2
92.38	1194.0	1160.1
92.39	1190.0	1160.1
92.4	1196.0	1160.0
92.41	1218.0	1160.0
92.42	1204.0	1160.0
92.43	1182.0	1159.9
92.44	1185.0	1159.9
92.45	1198.0	1159.8
92.46	1193.0	1159.8
92.47	1195.0	1159.7
92.48	1183.0	1159.7
92.49	1174.0	1159.7
92.5	1165.0	1159.6
92.51	1172.0	1159.6
92.52	1179.0	1159.5
92.53	1171.0	1159.5
92.54	1176.0	1159.4
92.55	1190.0	1159.4
92.56	1189.0	1159.3
92.57	1178.0	1159.3
92.58	1202.0	1159.3
92.59	1204.0	1159.2
92.6	1168.0	1159.2
92.61	1144.0	1159.1
92.62	1186.0	1159.1
92.63	1227.0	1159.0
92.64	1217.0	1159.0
92.65	1194.0	1159.0
92.66	1214.0	1158.9
92.67	1224.0	1158.9
92.68	1192.0	1158.8
92.69	1179.0	1158.8
92.7	1168.0	1158.8
92.71	1166.0	1158.7
92.72	1171.0	1158.7
92.73	1162.0	1158.6
92.74	1190.0	1158.6
92.75	1202.0	1158.5
92.76	1195.0	1158.5
92.77	1207.0	1158.5
92.78	1194.0	1158.4
92.79	1197.0	1158.4
92.8	1197.0	1158.3
92.81	1169.0	1158.3
92.82	1156.0	1158.2
92.83	1164.0	1158.2
92.84	1186.0	1158.2
92.85	1194.0	1158.1
92.86	1191.0	1158.1
92.87	1208.0	1158.0
92.88	1185.0	1158.0
92.89	1163.0	1158.0
92.9	1170.0	1157.9
92.91	1192.0	1157.9
92.92	1194.0	1157.8
92.93	1183.0	1157.8
92.94	1196.0	1157.7
92.95	1220.0	1157.7
92.96	1192.0	1157.7
92.97	1152.0	1157.6
92.98	1152.0	1157.6
92.99	1171.0	1157.5
93.0	1176.0	1157.5
93.01	1156.0	1157.5
93.02	1157.0	1157.4
93.03	1183.0	1157.4
93.04	1158.0	1157.3
93.05	1143.0	1157.3
93.06	1160.0	1157.3
93.07	1169.0	1157.2
93.08	1182.0	1157.2
93.09	1165.0	1157.1
93.1	1169.0	1157.1
93.11	1201.0	1157.1
93.12	1177.0	1157.0
93.13	1160.0	1157.0
93.14	1206.0	1156.9
93.15	1213.0	1156.9
93.16	1188.0	1156.9
93.17	1194.0	1156.8
93.18	1193.0	1156.8
93.19	1199.0	1156.7
93.2	1184.0	1156.7
93.21	1180.0	1156.7
93.22	1186.0	1156.6
93.23	1205.0	1156.6
93.24	1198.0	1156.6
93.25	1184.0	1156.5
93.26	1188.0	1156.5
93.27	1163.0	1156.4
93.28	1179.0	1156.4
93.29	1201.0	1156.4
93.3	1190.0	1156.3
93.31	1165.0	1156.3
93.32	1154.0	1156.2
93.33	1174.0	1156.2
93.34	1214.0	1156.2
93.35	1218.0	1156.1
93.36	1180.0	1156.1
93.37	1167.0	1156.1
93.38	1173.0	1156.0
93.39	1174.0	1156.0
93.4	1179.0	1155.9
93.41	1184.0	1155.9
93.42	1208.0	1155.9
93.43	1216.0	1155.8
93.44	1190.0	1155.8
93.45	1205.0	1155.8
93.46	1178.0	1155.7
93.47	1156.0	1155.7
93.48	1161.0	1155.7
93.49	1190.0	1155.6
93.5	1178.0	1155.6
93.51	1179.0	1155.6
93.52	1194.0	1155.5
93.53	1206.0	1155.5
93.54	1202.0	1155.4
93.55	1185.0	1155.4
93.56	1176.0	1155.4
93.57	1153.0	1155.3
93.58	1144.0	1155.3
93.59	1157.0	1155.3
93.6	1141.0	1155.2
93.61	1167.0	1155.2
93.62	1204.0	1155.2
93.63	1204.0	1155.1
93.64	1217.0	1155.1
93.65	1191.0	1155.1
93.66	1176.0	1155.0
93.67	1175.0	1155.0
93.68	1166.0	1155.0
93.69	1150.0	1154.9
93.7	1159.0	1154.9
93.71	1160.0	1154.9
93.72	1167.0	1154.8
93.73	1199.0	1154.8
93.74	1179.0	1154.8
93.75	1160.0	1154.7
93.76	1157.0	1154.7
93.77	1141.0	1154.7
93.78	1141.0	1154.6
93.79	1144.0	1154.6
93.8	1204.0	1154.6
93.81	1233.0	1154.6
93.82	1227.0	1154.5
93.83	1172.0	1154.5
93.84	1142.0	1154.5
93.85	1168.0	1154.4
93.86	1188.0	1154.4
93.87	1171.0	1154.4
93.88	1177.0	1154.3
93.89	1177.0	1154.3
93.9	1170.0	1154.3
93.91	1175.0	1154.2
93.92	1196.0	1154.2
93.93	1196.0	1154.2
93.94	1191.0	1154.2
93.95	1171.0	1154.1
93.96	1180.0	1154.1
93.97	1197.0	1154.1
93.98	1186.0	1154.0
93.99	1187.0	1154.0
94.0	1187.0	1154.0
94.01	1187.0	1153.9
94.02	1190.0	1153.9
94.03	1228.0	1153.9
94.04	1232.0	1153.9
94.05	1205.0	1153.8
94.06	1195.0	1153.8
94.07	1210.0	1153.8
94.08	1228.0	1153.7
94.09	1203.0	1153.7
94.1	1183.0	1153.7
94.11	1206.0	1153.7
94.12	1200.0	1153.6
94.13	1186.0	1153.6
94.14	1179.0	1153.6
94.15	1186.0	1153.6
94.16	1193.0	1153.5
94.17	1162.0	1153.5
94.18	1156.0	1153.5
94.19	1178.0	1153.4
94.2	1151.0	1153.4
94.21	1159.0	1153.4
94.22	1197.0	1153.4
94.23	1210.0	1153.3
94.24	1208.0	1153.3
94.25	1198.0	1153.3
94.26	1188.0	1153.3
94.27	1168.0	1153.2
94.28	1164.0	1153.2
94.29	1156.0	1153.2
94.3	1174.0	1153.2
94.31	1207.0	1153.1
94.32	1184.0	1153.1
94.33	1181.0	1153.1
94.34	1186.0	1153.1
94.35	1158.0	1153.0
94.36	1157.0	1153.0
94.37	1201.0	1153.0
94.38	1219.0	1153.0
94.39	1224.0	1152.9
94.4	1198.0	1152.9
94.41	1184.0	1152.9
94.42	1205.0	1152.9
94.43	1188.0	1152.8
94.44	1184.0	1152.8
94.45	1221.0	1152.8
94.46	1218.0	1152.8
94.47	1206.0	1152.8
94.48	1201.0	1152.7
94.49	1182.0	1152.7
94.5	1192.0	1152.7
94.51	1214.0	1152.7
94.52	1170.0	1152.6
94.53	1198.0	1152.6
94.54	1208.0	1152.6
94.55	1183.0	1152.6
94.56	1188.0	1152.5
94.57	1222.0	1152.5
94.58	1218.0	1152.5
94.59	1206.0	1152.5
94.6	1189.0	1152.5
94.61	1182.0	1152.4
94.62	1189.0	1152.4
94.63	1223.0	1152.4
94.64	1212.0	1152.4
94.65	1195.0	1152.4
94.66	1210.0	1152.3
94.67	1183.0	1152.3
94.68	1177.0	1152.3
94.69	1208.0	1152.3
94.7	1218.0	1152.2
94.71	1214.0	1152.2
94.72	1211.0	1152.2
94.73	1193.0	1152.2
94.74	1198.0	1152.2
94.75	1206.0	1152.1
94.76	1218.0	1152.1
94.77	1192.0	1152.1
94.78	1189.0	1152.1
94.79	1193.0	1152.1
94.8	1208.0	1152.0
94.81	1213.0	1152.0
94.82	1174.0	1152.0
94.83	1163.0	1152.0
94.84	1207.0	1152.0
94.85	1213.0	1152.0
94.86	1207.0	1151.9
94.87	1227.0	1151.9
94.88	1242.0	1151.9
94.89	1204.0	1151.9
94.9	1184.0	1151.9
94.91	1223.0	1151.8
94.92	1224.0	1151.8
94.93	1232.0	1151.8
94.94	1232.0	1151.8
94.95	1210.0	1151.8
94.96	1215.0	1151.7
94.97	1211.0	1151.7
94.98	1191.0	1151.7
94.99	1176.0	1151.7
95.0	1189.0	1151.7
95.01	1199.0	1151.7
95.02	1235.0	1151.6
95.03	1221.0	1151.6
95.04	1195.0	1151.6
95.05	1215.0	1151.6
95.06	1234.0	1151.6
95.07	1221.0	1151.6
95.08	1240.0	1151.5
95.09	1229.0	1151.5
95.1	1205.0	1151.5
95.11	1200.0	1151.5
95.12	1194.0	1151.5
95.13	1201.0	1151.5
95.14	1188.0	1151.4
95.15	1197.0	1151.4
95.16	1206.0	1151.4
95.17	1193.0	1151.4
95.18	1208.0	1151.4
95.19	1206.0	1151.4
95.2	1180.0	1151.4
95.21	1196.0	1151.3
95.22	1207.0	1151.3
95.23	1201.0	1151.3
95.24	1226.0	1151.3
95.25	1207.0	1151.3
95.26	1184.0	1151.3
95.27	1193.0	1151.2
95.28	1172.0	1151.2
95.29	1169.0	1151.2
95.3	1169.0	1151.2
95.31	1193.0	1151.2
95.32	1206.0	1151.2
95.33	1199.0	1151.2
95.34	1197.0	1151.2
95.35	1228.0	1151.1
95.36	1180.0	1151.1
95.37	1167.0	1151.1
95.38	1162.0	1151.1
95.39	1178.0	1151.1
95.4	1192.0	1151.1
95.41	1248.0	1151.1
95.42	1243.0	1151.0
95.43	1229.0	1151.0
95.44	1230.0	1151.0
95.45	1200.0	1151.0
95.46	1195.0	1151.0
95.47	1200.0	1151.0
95.48	1174.0	1151.0
95.49	1215.0	1151.0
95.5	1221.0	1150.9
95.51	1210.0	1150.9
95.52	1206.0	1150.9
95.53	1184.0	1150.9
95.54	1177.0	1150.9
95.55	1180.0	1150.9
95.56	1191.0	1150.9
95.57	1186.0	1150.9
95.58	1192.0	1150.8
95.59	1185.0	1150.8
95.6	1225.0	1150.8
95.61	1227.0	1150.8
95.62	1199.0	1150.8
95.63	1176.0	1150.8
95.64	1198.0	1150.8
95.65	1231.0	1150.8
95.66	1237.0	1150.8
95.67	1198.0	1150.7
95.68	1156.0	1150.7
95.69	1180.0	1150.7
95.7	1181.0	1150.7
95.71	1181.0	1150.7
95.72	1176.0	1150.7
95.73	1174.0	1150.7
95.74	1207.0	1150.7
95.75	1211.0	1150.7
95.76	1210.0	1150.7
95.77	1182.0	1150.6
95.78	1191.0	1150.6
95.79	1236.0	1150.6
95.8	1213.0	1150.6
95.81	1143.0	1150.6
95.82	1180.0	1150.6
95.83	1199.0	1150.6
95.84	1175.0	1150.6
95.85	1187.0	1150.6
95.86	1197.0	1150.6
95.87	1201.0	1150.5
95.88	1214.0	1150.5
95.89	1184.0	1150.5
95.9	1177.0	1150.5
95.91	1192.0	1150.5
95.92	1177.0	1150.5
95.93	1184.0	1150.5
95.94	1217.0	1150.5
95.95	1234.0	1150.5
95.96	1195.0	1150.5
95.97	1180.0	1150.5
95.98	1175.0	1150.5
95.99	1190.0	1150.4
96.0	1238.0	1150.4
96.01	1228.0	1150.4
96.02	1196.0	1150.4
96.03	1185.0	1150.4
96.04	1185.0	1150.4
96.05	1173.0	1150.4
96.06	1170.0	1150.4
96.07	1203.0	1150.4
96.08	1195.0	1150.4
96.09	1190.0	1150.4
96.1	1201.0	1150.4
96.11	1231.0	1150.4
96.12	1217.0	1150.4
96.13	1175.0	1150.3
96.14	1188.0	1150.3
96.15	1207.0	1150.3
96.16	1200.0	1150.3
96.17	1166.0	1150.3
96.18	1175.0	1150.3
96.19	1239.0	1150.3
96.2	1215.0	1150.3
96.21	1193.0	1150.3
96.22	1217.0	1150.3
96.23	1223.0	1150.3
96.24	1200.0	1150.3
96.25	1197.0	1150.3
96.26	1227.0	1150.3
96.27	1227.0	1150.3
96.28	1220.0	1150.3
96.29	1218.0	1150.2
96.3	1220.0	1150.2
96.31	1197.0	1150.2
96.32	1200.0	1150.2
96.33	1196.0	1150.2
96.34	1203.0	1150.2
96.35	1188.0	1150.2
96.36	1192.0	1150.2
96.37	1205.0	1150.2
96.38	1232.0	1150.2
96.39	1209.0	1150.2
96.4	1187.0	1150.2
96.41	1202.0	1150.2
96.42	1184.0	1150.2
96.43	1231.0	1150.2
96.44	1192.0	1150.2
96.45	1174.0	1150.2
96.46	1190.0	1150.2
96.47	1200.0	1150.2
96.48	1179.0	1150.2
96.49	1168.0	1150.2
96.5	1187.0	1150.2
96.51	1182.0	1150.1
96.52	1190.0	1150.1
96.53	1204.0	1150.1
96.54	1222.0	1150.1
96.55	1194.0	1150.1
96.56	1191.0	1150.1
96.57	1191.0	1150.1
96.58	1217.0	1150.1
96.59	1220.0	1150.1
96.6	1226.0	1150.1
96.61	1229.0	1150.1
96.62	1220.0	1150.1
96.63	1187.0	1150.1
96.64	1178.0	1150.1
96.65	1187.0	1150.1
96.66	1189.0	1150.1
96.67	1196.0	1150.1
96.68	1198.0	1150.1
96.69	1248.0	1150.1
96.7	1224.0	1150.1
96.71	1169.0	1150.1
96.72	1218.0	1150.1
96.73	1235.0	1150.1
96.74	1200.0	1150.1
96.75	1206.0	1150.1
96.76	1189.0	1150.1
96.77	1186.0	1150.1
96.78	1219.0	1150.1
96.79	1214.0	1150.1
96.8	1220.0	1150.1
96.81	1217.0	1150.1
96.82	1181.0	1150.1
96.83	1186.0	1150.1
96.84	1179.0	1150.1
96.85	1203.0	1150.1
96.86	1208.0	1150.1
96.87	1193.0	1150.1
96.88	1191.0	1150.1
96.89	1217.0	1150.1
96.9	1218.0	1150.1
96.91	1246.0	1150.1
96.92	1251.0	1150.1
96.93	1216.0	1150.1
96.94	1151.0	1150.1
96.95	1170.0	1150.1
96.96	1195.0	1150.1
96.97	1205.0	1150.1
96.98	1211.0	1150.1
96.99	1201.0	1150.1
97.0	1200.0	1150.0
97.01	1179.0	1150.0
97.02	1194.0	1150.0
97.03	1227.0	1150.0
97.04	1224.0	1150.0
97.05	1261.0	1150.0
97.06	1208.0	1150.0
97.07	1237.0	1150.0
97.08	1209.0	1150.0
97.09	1220.0	1150.0
97.1	1233.0	1150.0
97.11	1232.0	1150.0
97.12	1237.0	1150.0
97.13	1242.0	1150.0
97.14	1224.0	1150.1
97.15	1222.0	1150.1
97.16	1227.0	1150.1
97.17	1208.0	1150.1
97.18	1201.0	1150.1
97.19	1205.0	1150.1
97.2	1208.0	1150.1
97.21	1174.0	1150.1
97.22	1191.0	1150.1
97.23	1196.0	1150.1
97.24	1234.0	1150.1
97.25	1246.0	1150.1
97.26	1222.0	1150.1
97.27	1200.0	1150.1
97.28	1201.0	1150.1
97.29	1210.0	1150.1
97.3	1178.0	1150.1
97.31	1163.0	1150.1
97.32	1189.0	1150.1
97.33	1195.0	1150.1
97.34	1223.0	1150.1
97.35	1206.0	1150.1
97.36	1180.0	1150.1
97.37	1202.0	1150.1
97.38	1218.0	1150.1
97.39	1212.0	1150.1
97.4	1225.0	1150.1
97.41	1197.0	1150.1
97.42	1190.0	1150.1
97.43	1189.0	1150.1
97.44	1177.0	1150.1
97.45	1216.0	1150.1
97.46	1184.0	1150.1
97.47	1211.0	1150.1
97.48	1212.0	1150.1
97.49	1230.0	1150.1
97.5	1205.0	1150.1
97.51	1219.0	1150.1
97.52	1216.0	1150.1
97.53	1186.0	1150.1
97.54	1194.0	1150.1
97.55	1204.0	1150.1
97.56	1196.0	1150.1
97.57	1183.0	1150.1
97.58	1182.0	1150.1
97.59	1167.0	1150.1
97.6	1166.0	1150.1
97.61	1209.0	1150.1
97.62	1187.0	1150.1
97.63	1192.0	1150.1
97.64	1198.0	1150.1
97.65	1166.0	1150.1
97.66	1221.0	1150.2
97.67	1152.0	1150.2
97.68	1183.0	1150.2
97.69	1185.0	1150.2
97.7	1178.0	1150.2
97.71	1173.0	1150.2
97.72	1189.0	1150.2
97.73	1189.0	1150.2
97.74	1194.0	1150.2
97.75	1217.0	1150.2
97.76	1207.0	1150.2
97.77	1178.0	1150.2
97.78	1212.0	1150.2
97.79	1218.0	1150.2
97.8	1202.0	1150.2
97.81	1256.0	1150.2
97.82	1202.0	1150.2
97.83	1197.0	1150.2
97.84	1213.0	1150.2
97.85	1194.0	1150.2
97.86	1152.0	1150.2
97.87	1163.0	1150.2
97.88	1157.0	1150.2
97.89	1175.0	1150.2
97.9	1172.0	1150.2
97.91	1211.0	1150.3
97.92	1204.0	1150.3
97.93	1224.0	1150.3
97.94	1214.0	1150.3
97.95	1218.0	1150.3
97.96	1217.0	1150.3
97.97	1197.0	1150.3
97.98	1186.0	1150.3
97.99	1182.0	1150.3
98.0	1186.0	1150.3
98.01	1232.0	1150.3
98.02	1253.0	1150.3
98.03	1220.0	1150.3
98.04	1229.0	1150.3
98.05	1205.0	1150.3
98.06	1215.0	1150.3
98.07	1185.0	1150.3
98.08	1162.0	1150.3
98.09	1201.0	1150.3
98.1	1243.0	1150.3
98.11	1239.0	1150.3
98.12	1237.0	1150.4
98.13	1226.0	1150.4
98.14	1214.0	1150.4
98.15	1228.0	1150.4
98.16	1230.0	1150.4
98.17	1221.0	1150.4
98.18	1205.0	1150.4
98.19	1199.0	1150.4
98.2	1182.0	1150.4
98.21	1213.0	1150.4
98.22	1216.0	1150.4
98.23	1169.0	1150.4
98.24	1164.0	1150.4
98.25	1177.0	1150.4
98.26	1200.0	1150.4
98.27	1200.0	1150.4
98.28	1178.0	1150.4
98.29	1215.0	1150.5
98.3	1197.0	1150.5
98.31	1143.0	1150.5
98.32	1184.0	1150.5
98.33	1209.0	1150.5
98.34	1221.0	1150.5
98.35	1208.0	1150.5
98.36	1195.0	1150.5
98.37	1185.0	1150.5
98.38	1182.0	1150.5
98.39	1181.0	1150.5
98.4	1223.0	1150.5
98.41	1237.0	1150.5
98.42	1207.0	1150.5
98.43	1195.0	1150.5
98.44	1174.0	1150.5
98.45	1163.0	1150.6
98.46	1175.0	1150.6
98.47	1201.0	1150.6
98.48	1201.0	1150.6
98.49	1204.0	1150.6
98.5	1213.0	1150.6
98.51	1259.0	1150.6
98.52	1202.0	1150.6
98.53	1200.0	1150.6
98.54	1142.0	1150.6
98.55	1172.0	1150.6
98.56	1209.0	1150.6
98.57	1230.0	1150.6
98.58	1214.0	1150.6
98.59	1208.0	1150.6
98.6	1217.0	1150.7
98.61	1182.0	1150.7
98.62	1177.0	1150.7
98.63	1178.0	1150.7
98.64	1199.0	1150.7
98.65	1202.0	1150.7
98.66	1168.0	1150.7
98.67	1201.0	1150.7
98.68	1205.0	1150.7
98.69	1180.0	1150.7
98.7	1176.0	1150.7
98.71	1170.0	1150.7
98.72	1224.0	1150.7
98.73	1195.0	1150.8
98.74	1207.0	1150.8
98.75	1187.0	1150.8
98.76	1200.0	1150.8
98.77	1221.0	1150.8
98.78	1190.0	1150.8
98.79	1192.0	1150.8
98.8	1150.0	1150.8
98.81	1214.0	1150.8
98.82	1222.0	1150.8
98.83	1190.0	1150.8
98.84	1176.0	1150.8
98.85	1205.0	1150.8
98.86	1203.0	1150.8
98.87	1234.0	1150.9
98.88	1184.0	1150.9
98.89	1205.0	1150.9
98.9	1246.0	1150.9
98.91	1231.0	1150.9
98.92	1182.0	1150.9
98.93	1168.0	1150.9
98.94	1197.0	1150.9
98.95	1198.0	1150.9
98.96	1212.0	1150.9
98.97	1227.0	1150.9
98.98	1177.0	1150.9
98.99	1199.0	1151.0
99.0	1196.0	1151.0
99.01	1187.0	1151.0
99.02	1186.0	1151.0
99.03	1174.0	1151.0
99.04	1180.0	1151.0
99.05	1229.0	1151.0
99.06	1210.0	1151.0
99.07	1206.0	1151.0
99.08	1215.0	1151.0
99.09	1220.0	1151.0
99.1	1217.0	1151.0
99.11	1204.0	1151.1
99.12	1203.0	1151.1
99.13	1184.0	1151.1
99.14	1201.0	1151.1
99.15	1199.0	1151.1
99.16	1180.0	1151.1
99.17	1254.0	1151.1
99.18	1203.0	1151.1
99.19	1170.0	1151.1
99.2	1194.0	1151.1
99.21	1190.0	1151.1
99.22	1194.0	1151.1
99.23	1218.0	1151.2
99.24	1243.0	1151.2
99.25	1222.0	1151.2
99.26	1170.0	1151.2
99.27	1176.0	1151.2
99.28	1171.0	1151.2
99.29	1211.0	1151.2
99.3	1211.0	1151.2
99.31	1219.0	1151.2
99.32	1192.0	1151.2
99.33	1196.0	1151.2
99.34	1190.0	1151.2
99.35	1168.0	1151.3
99.36	1181.0	1151.3
99.37	1254.0	1151.3
99.38	1183.0	1151.3
99.39	1178.0	1151.3
99.4	1206.0	1151.3
99.41	1197.0	1151.3
99.42	1188.0	1151.3
99.43	1192.0	1151.3
99.44	1211.0	1151.3
99.45	1198.0	1151.3
99.46	1189.0	1151.4
99.47	1205.0	1151.4
99.48	1195.0	1151.4
99.49	1185.0	1151.4
99.5	1173.0	1151.4
99.51	1178.0	1151.4
99.52	1204.0	1151.4
99.53	1203.0	1151.4
99.54	1205.0	1151.4
99.55	1224.0	1151.4
99.56	1192.0	1151.4
99.57	1163.0	1151.4
99.58	1147.0	1151.5
99.59	1210.0	1151.5
99.6	1187.0	1151.5
99.61	1213.0	1151.5
99.62	1209.0	1151.5
99.63	1145.0	1151.5
99.64	1146.0	1151.5
99.65	1188.0	1151.5
99.66	1217.0	1151.5
99.67	1183.0	1151.5
99.68	1135.0	1151.5
99.69	1120.0	1151.6
99.7	1175.0	1151.6
99.71	1183.0	1151.6
99.72	1217.0	1151.6
99.73	1208.0	1151.6
99.74	1190.0	1151.6
99.75	1216.0	1151.6
99.76	1186.0	1151.6
99.77	1191.0	1151.6
99.78	1185.0	1151.6
99.79	1172.0	1151.6
99.8	1169.0	1151.7
99.81	1169.0	1151.7
99.82	1192.0	1151.7
99.83	1194.0	1151.7
99.84	1256.0	1151.7
99.85	1229.0	1151.7
99.86	1223.0	1151.7
99.87	1215.0	1151.7
99.88	1201.0	1151.7
99.89	1200.0	1151.7
99.9	1195.0	1151.7
99.91	1165.0	1151.8
99.92	1196.0	1151.8
99.93	1244.0	1151.8
99.94	1260.0	1151.8
99.95	1169.0	1151.8
99.96	1174.0	1151.8
99.97	1196.0	1151.8
99.98	1206.0	1151.8
99.99	1190.0	1151.8
100.0	1200.0	1151.8
