BroadPeak_MnO2_SPEX6
Wavelength = 1.54059 Ã… (Cu)
10.0	2069.0
10.01	2093.0
10.02	2122.0
10.03	2146.0
10.04	2169.0
10.05	2208.0
10.06	2161.0
10.07	2131.0
10.08	2197.0
10.09	2175.0
10.1	2163.0
10.11	2158.0
10.12	2168.0
10.13	2182.0
10.14	2162.0
10.15	2166.0
10.16	2137.0
10.17	2126.0
10.18	2124.0
10.19	2138.0
10.2	2181.0
10.21	2185.0
10.22	2191.0
10.23	2212.0
10.24	2176.0
10.25	2174.0
10.26	2133.0
10.27	2154.0
10.28	2179.0
10.29	2155.0
10.3	2102.0
10.31	2173.0
10.32	2171.0
10.33	2184.0
10.34	2138.0
10.35	2189.0
10.36	2185.0
10.37	2152.0
10.38	2193.0
10.39	2201.0
10.4	2200.0
10.41	2216.0
10.42	2204.0
10.43	2212.0
10.44	2224.0
10.45	2218.0
10.46	2199.0
10.47	2175.0
10.48	2202.0
10.49	2196.0
10.5	2212.0
10.51	2191.0
10.52	2224.0
10.53	2125.0
10.54	2182.0
10.55	2236.0
10.56	2195.0
10.57	2150.0
10.58	2205.0
10.59	2181.0
10.6	2189.0
10.61	2213.0
10.62	2227.0
10.63	2277.0
10.64	2220.0
10.65	2223.0
10.66	2252.0
10.67	2239.0
10.68	2273.0
10.69	2220.0
10.7	2220.0
10.71	2244.0
10.72	2306.0
10.73	2239.0
10.74	2248.0
10.75	2266.0
10.76	2212.0
10.77	2242.0
10.78	2233.0
10.79	2218.0
10.8	2261.0
10.81	2298.0
10.82	2268.0
10.83	2222.0
10.84	2258.0
10.85	2216.0
10.86	2215.0
10.87	2286.0
10.88	2329.0
10.89	2276.0
10.9	2268.0
10.91	2296.0
10.92	2279.0
10.93	2261.0
10.94	2309.0
10.95	2287.0
10.96	2219.0
10.97	2278.0
10.98	2261.0
10.99	2290.0
11.0	2265.0
11.01	2309.0
11.02	2295.0
11.03	2279.0
11.04	2253.0
11.05	2259.0
11.06	2237.0
11.07	2193.0
11.08	2246.0
11.09	2311.0
11.1	2271.0
11.11	2262.0
11.12	2351.0
11.13	2305.0
11.14	2286.0
11.15	2312.0
11.16	2311.0
11.17	2329.0
11.18	2247.0
11.19	2277.0
11.2	2286.0
11.21	2321.0
11.22	2311.0
11.23	2339.0
11.24	2354.0
11.25	2280.0
11.26	2318.0
11.27	2308.0
11.28	2270.0
11.29	2282.0
11.3	2329.0
11.31	2313.0
11.32	2330.0
11.33	2336.0
11.34	2283.0
11.35	2292.0
11.36	2305.0
11.37	2317.0
11.38	2357.0
11.39	2331.0
11.4	2367.0
11.41	2289.0
11.42	2319.0
11.43	2298.0
11.44	2338.0
11.45	2363.0
11.46	2362.0
11.47	2376.0
11.48	2388.0
11.49	2399.0
11.5	2345.0
11.51	2341.0
11.52	2278.0
11.53	2301.0
11.54	2379.0
11.55	2394.0
11.56	2412.0
11.57	2388.0
11.58	2328.0
11.59	2336.0
11.6	2294.0
11.61	2337.0
11.62	2378.0
11.63	2269.0
11.64	2265.0
11.65	2308.0
11.66	2317.0
11.67	2302.0
11.68	2365.0
11.69	2399.0
11.7	2365.0
11.71	2374.0
11.72	2361.0
11.73	2358.0
11.74	2389.0
11.75	2360.0
11.76	2365.0
11.77	2417.0
11.78	2416.0
11.79	2407.0
11.8	2280.0
11.81	2370.0
11.82	2418.0
11.83	2389.0
11.84	2388.0
11.85	2428.0
11.86	2424.0
11.87	2396.0
11.88	2417.0
11.89	2353.0
11.9	2283.0
11.91	2325.0
11.92	2403.0
11.93	2454.0
11.94	2368.0
11.95	2281.0
11.96	2391.0
11.97	2369.0
11.98	2351.0
11.99	2449.0
12.0	2402.0
12.01	2400.0
12.02	2435.0
12.03	2484.0
12.04	2368.0
12.05	2352.0
12.06	2431.0
12.07	2464.0
12.08	2493.0
12.09	2459.0
12.1	2382.0
12.11	2401.0
12.12	2413.0
12.13	2445.0
12.14	2487.0
12.15	2494.0
12.16	2486.0
12.17	2452.0
12.18	2436.0
12.19	2447.0
12.2	2507.0
12.21	2460.0
12.22	2409.0
12.23	2416.0
12.24	2398.0
12.25	2420.0
12.26	2465.0
12.27	2511.0
12.28	2505.0
12.29	2466.0
12.3	2454.0
12.31	2476.0
12.32	2505.0
12.33	2505.0
12.34	2441.0
12.35	2435.0
12.36	2415.0
12.37	2434.0
12.38	2492.0
12.39	2459.0
12.4	2438.0
12.41	2437.0
12.42	2456.0
12.43	2485.0
12.44	2487.0
12.45	2456.0
12.46	2453.0
12.47	2525.0
12.48	2506.0
12.49	2439.0
12.5	2442.0
12.51	2449.0
12.52	2429.0
12.53	2479.0
12.54	2503.0
12.55	2477.0
12.56	2472.0
12.57	2485.0
12.58	2479.0
12.59	2504.0
12.6	2505.0
12.61	2458.0
12.62	2457.0
12.63	2436.0
12.64	2441.0
12.65	2486.0
12.66	2514.0
12.67	2503.0
12.68	2532.0
12.69	2527.0
12.7	2508.0
12.71	2469.0
12.72	2478.0
12.73	2575.0
12.74	2583.0
12.75	2532.0
12.76	2549.0
12.77	2499.0
12.78	2473.0
12.79	2486.0
12.8	2494.0
12.81	2496.0
12.82	2583.0
12.83	2545.0
12.84	2573.0
12.85	2552.0
12.86	2582.0
12.87	2591.0
12.88	2537.0
12.89	2498.0
12.9	2544.0
12.91	2568.0
12.92	2564.0
12.93	2517.0
12.94	2511.0
12.95	2524.0
12.96	2537.0
12.97	2556.0
12.98	2561.0
12.99	2562.0
13.0	2571.0
13.01	2578.0
13.02	2568.0
13.03	2554.0
13.04	2504.0
13.05	2563.0
13.06	2627.0
13.07	2534.0
13.08	2567.0
13.09	2590.0
13.1	2652.0
13.11	2631.0
13.12	2547.0
13.13	2586.0
13.14	2627.0
13.15	2579.0
13.16	2565.0
13.17	2592.0
13.18	2626.0
13.19	2625.0
13.2	2613.0
13.21	2610.0
13.22	2595.0
13.23	2535.0
13.24	2599.0
13.25	2620.0
13.26	2577.0
13.27	2600.0
13.28	2596.0
13.29	2628.0
13.3	2641.0
13.31	2632.0
13.32	2587.0
13.33	2587.0
13.34	2635.0
13.35	2601.0
13.36	2612.0
13.37	2623.0
13.38	2596.0
13.39	2589.0
13.4	2581.0
13.41	2588.0
13.42	2563.0
13.43	2617.0
13.44	2670.0
13.45	2650.0
13.46	2648.0
13.47	2661.0
13.48	2620.0
13.49	2642.0
13.5	2589.0
13.51	2616.0
13.52	2621.0
13.53	2606.0
13.54	2657.0
13.55	2666.0
13.56	2643.0
13.57	2655.0
13.58	2664.0
13.59	2607.0
13.6	2608.0
13.61	2649.0
13.62	2660.0
13.63	2673.0
13.64	2677.0
13.65	2679.0
13.66	2706.0
13.67	2657.0
13.68	2623.0
13.69	2635.0
13.7	2698.0
13.71	2654.0
13.72	2682.0
13.73	2680.0
13.74	2658.0
13.75	2699.0
13.76	2644.0
13.77	2675.0
13.78	2658.0
13.79	2613.0
13.8	2615.0
13.81	2649.0
13.82	2697.0
13.83	2725.0
13.84	2731.0
13.85	2686.0
13.86	2661.0
13.87	2638.0
13.88	2675.0
13.89	2711.0
13.9	2716.0
13.91	2726.0
13.92	2706.0
13.93	2698.0
13.94	2707.0
13.95	2728.0
13.96	2746.0
13.97	2751.0
13.98	2711.0
13.99	2697.0
14.0	2708.0
14.01	2723.0
14.02	2682.0
14.03	2659.0
14.04	2651.0
14.05	2641.0
14.06	2679.0
14.07	2700.0
14.08	2649.0
14.09	2755.0
14.1	2797.0
14.11	2729.0
14.12	2715.0
14.13	2743.0
14.14	2746.0
14.15	2743.0
14.16	2682.0
14.17	2679.0
14.18	2701.0
14.19	2733.0
14.2	2777.0
14.21	2769.0
14.22	2737.0
14.23	2785.0
14.24	2780.0
14.25	2739.0
14.26	2725.0
14.27	2634.0
14.28	2636.0
14.29	2735.0
14.3	2743.0
14.31	2691.0
14.32	2665.0
14.33	2695.0
14.34	2720.0
14.35	2683.0
14.36	2715.0
14.37	2751.0
14.38	2739.0
14.39	2727.0
14.4	2756.0
14.41	2768.0
14.42	2751.0
14.43	2709.0
14.44	2726.0
14.45	2726.0
14.46	2754.0
14.47	2739.0
14.48	2711.0
14.49	2696.0
14.5	2758.0
14.51	2750.0
14.52	2775.0
14.53	2789.0
14.54	2714.0
14.55	2687.0
14.56	2731.0
14.57	2777.0
14.58	2719.0
14.59	2742.0
14.6	2787.0
14.61	2762.0
14.62	2742.0
14.63	2706.0
14.64	2663.0
14.65	2634.0
14.66	2674.0
14.67	2749.0
14.68	2740.0
14.69	2691.0
14.7	2722.0
14.71	2700.0
14.72	2740.0
14.73	2745.0
14.74	2750.0
14.75	2739.0
14.76	2699.0
14.77	2713.0
14.78	2741.0
14.79	2714.0
14.8	2703.0
14.81	2700.0
14.82	2702.0
14.83	2688.0
14.84	2687.0
14.85	2710.0
14.86	2697.0
14.87	2671.0
14.88	2694.0
14.89	2718.0
14.9	2763.0
14.91	2770.0
14.92	2750.0
14.93	2706.0
14.94	2647.0
14.95	2687.0
14.96	2670.0
14.97	2682.0
14.98	2743.0
14.99	2726.0
15.0	2697.0
15.01	2746.0
15.02	2791.0
15.03	2735.0
15.04	2698.0
15.05	2680.0
15.06	2705.0
15.07	2756.0
15.08	2728.0
15.09	2689.0
15.1	2749.0
15.11	2799.0
15.12	2792.0
15.13	2707.0
15.14	2702.0
15.15	2695.0
15.16	2703.0
15.17	2742.0
15.18	2766.0
15.19	2741.0
15.2	2750.0
15.21	2763.0
15.22	2715.0
15.23	2716.0
15.24	2690.0
15.25	2666.0
15.26	2700.0
15.27	2716.0
15.28	2670.0
15.29	2643.0
15.3	2688.0
15.31	2761.0
15.32	2768.0
15.33	2708.0
15.34	2682.0
15.35	2708.0
15.36	2724.0
15.37	2743.0
15.38	2744.0
15.39	2689.0
15.4	2706.0
15.41	2718.0
15.42	2750.0
15.43	2667.0
15.44	2605.0
15.45	2596.0
15.46	2653.0
15.47	2704.0
15.48	2699.0
15.49	2684.0
15.5	2682.0
15.51	2667.0
15.52	2696.0
15.53	2741.0
15.54	2686.0
15.55	2614.0
15.56	2634.0
15.57	2699.0
15.58	2694.0
15.59	2676.0
15.6	2714.0
15.61	2695.0
15.62	2680.0
15.63	2714.0
15.64	2703.0
15.65	2702.0
15.66	2708.0
15.67	2697.0
15.68	2697.0
15.69	2708.0
15.7	2709.0
15.71	2729.0
15.72	2737.0
15.73	2725.0
15.74	2729.0
15.75	2698.0
15.76	2688.0
15.77	2709.0
15.78	2727.0
15.79	2689.0
15.8	2638.0
15.81	2646.0
15.82	2649.0
15.83	2692.0
15.84	2709.0
15.85	2682.0
15.86	2684.0
15.87	2663.0
15.88	2689.0
15.89	2714.0
15.9	2720.0
15.91	2729.0
15.92	2729.0
15.93	2717.0
15.94	2714.0
15.95	2720.0
15.96	2699.0
15.97	2684.0
15.98	2693.0
15.99	2723.0
16.0	2682.0
16.01	2673.0
16.02	2685.0
16.03	2714.0
16.04	2701.0
16.05	2726.0
16.06	2677.0
16.07	2659.0
16.08	2670.0
16.09	2693.0
16.1	2679.0
16.11	2661.0
16.12	2670.0
16.13	2693.0
16.14	2701.0
16.15	2686.0
16.16	2672.0
16.17	2667.0
16.18	2659.0
16.19	2677.0
16.2	2665.0
16.21	2664.0
16.22	2685.0
16.23	2636.0
16.24	2596.0
16.25	2613.0
16.26	2700.0
16.27	2724.0
16.28	2687.0
16.29	2649.0
16.3	2654.0
16.31	2668.0
16.32	2645.0
16.33	2662.0
16.34	2691.0
16.35	2677.0
16.36	2636.0
16.37	2638.0
16.38	2675.0
16.39	2691.0
16.4	2686.0
16.41	2673.0
16.42	2619.0
16.43	2601.0
16.44	2615.0
16.45	2637.0
16.46	2654.0
16.47	2642.0
16.48	2673.0
16.49	2705.0
16.5	2673.0
16.51	2643.0
16.52	2641.0
16.53	2650.0
16.54	2648.0
16.55	2657.0
16.56	2653.0
16.57	2644.0
16.58	2669.0
16.59	2712.0
16.6	2673.0
16.61	2619.0
16.62	2643.0
16.63	2633.0
16.64	2642.0
16.65	2692.0
16.66	2679.0
16.67	2684.0
16.68	2723.0
16.69	2722.0
16.7	2709.0
16.71	2629.0
16.72	2604.0
16.73	2654.0
16.74	2682.0
16.75	2649.0
16.76	2626.0
16.77	2638.0
16.78	2675.0
16.79	2685.0
16.8	2683.0
16.81	2687.0
16.82	2698.0
16.83	2693.0
16.84	2655.0
16.85	2658.0
16.86	2671.0
16.87	2657.0
16.88	2635.0
16.89	2627.0
16.9	2659.0
16.91	2662.0
16.92	2650.0
16.93	2676.0
16.94	2682.0
16.95	2669.0
16.96	2671.0
16.97	2643.0
16.98	2644.0
16.99	2670.0
17.0	2655.0
17.01	2626.0
17.02	2620.0
17.03	2619.0
17.04	2631.0
17.05	2617.0
17.06	2610.0
17.07	2638.0
17.08	2666.0
17.09	2690.0
17.1	2700.0
17.11	2665.0
17.12	2626.0
17.13	2645.0
17.14	2664.0
17.15	2653.0
17.16	2625.0
17.17	2623.0
17.18	2639.0
17.19	2626.0
17.2	2619.0
17.21	2653.0
17.22	2660.0
17.23	2613.0
17.24	2595.0
17.25	2628.0
17.26	2627.0
17.27	2642.0
17.28	2682.0
17.29	2702.0
17.3	2697.0
17.31	2688.0
17.32	2685.0
17.33	2630.0
17.34	2594.0
17.35	2613.0
17.36	2640.0
17.37	2624.0
17.38	2579.0
17.39	2611.0
17.4	2634.0
17.41	2621.0
17.42	2645.0
17.43	2672.0
17.44	2669.0
17.45	2649.0
17.46	2651.0
17.47	2640.0
17.48	2611.0
17.49	2589.0
17.5	2596.0
17.51	2659.0
17.52	2735.0
17.53	2671.0
17.54	2561.0
17.55	2580.0
17.56	2620.0
17.57	2636.0
17.58	2634.0
17.59	2652.0
17.6	2686.0
17.61	2681.0
17.62	2643.0
17.63	2613.0
17.64	2617.0
17.65	2616.0
17.66	2606.0
17.67	2606.0
17.68	2620.0
17.69	2610.0
17.7	2594.0
17.71	2620.0
17.72	2617.0
17.73	2580.0
17.74	2597.0
17.75	2638.0
17.76	2615.0
17.77	2583.0
17.78	2593.0
17.79	2591.0
17.8	2587.0
17.81	2603.0
17.82	2605.0
17.83	2585.0
17.84	2619.0
17.85	2672.0
17.86	2657.0
17.87	2605.0
17.88	2569.0
17.89	2569.0
17.9	2582.0
17.91	2596.0
17.92	2610.0
17.93	2590.0
17.94	2563.0
17.95	2599.0
17.96	2638.0
17.97	2603.0
17.98	2585.0
17.99	2578.0
18.0	2515.0
18.01	2531.0
18.02	2580.0
18.03	2603.0
18.04	2604.0
18.05	2609.0
18.06	2591.0
18.07	2556.0
18.08	2561.0
18.09	2569.0
18.1	2588.0
18.11	2614.0
18.12	2594.0
18.13	2571.0
18.14	2571.0
18.15	2590.0
18.16	2608.0
18.17	2615.0
18.18	2598.0
18.19	2590.0
18.2	2594.0
18.21	2553.0
18.22	2497.0
18.23	2484.0
18.24	2540.0
18.25	2567.0
18.26	2574.0
18.27	2604.0
18.28	2615.0
18.29	2622.0
18.3	2627.0
18.31	2579.0
18.32	2580.0
18.33	2614.0
18.34	2596.0
18.35	2606.0
18.36	2627.0
18.37	2565.0
18.38	2554.0
18.39	2597.0
18.4	2612.0
18.41	2596.0
18.42	2622.0
18.43	2610.0
18.44	2575.0
18.45	2598.0
18.46	2600.0
18.47	2555.0
18.48	2543.0
18.49	2572.0
18.5	2592.0
18.51	2579.0
18.52	2522.0
18.53	2494.0
18.54	2537.0
18.55	2554.0
18.56	2526.0
18.57	2532.0
18.58	2544.0
18.59	2525.0
18.6	2548.0
18.61	2576.0
18.62	2568.0
18.63	2585.0
18.64	2601.0
18.65	2586.0
18.66	2586.0
18.67	2605.0
18.68	2611.0
18.69	2561.0
18.7	2534.0
18.71	2546.0
18.72	2559.0
18.73	2548.0
18.74	2572.0
18.75	2574.0
18.76	2527.0
18.77	2561.0
18.78	2581.0
18.79	2575.0
18.8	2574.0
18.81	2579.0
18.82	2598.0
18.83	2633.0
18.84	2601.0
18.85	2566.0
18.86	2536.0
18.87	2551.0
18.88	2560.0
18.89	2570.0
18.9	2563.0
18.91	2562.0
18.92	2566.0
18.93	2585.0
18.94	2598.0
18.95	2555.0
18.96	2520.0
18.97	2535.0
18.98	2513.0
18.99	2510.0
19.0	2557.0
19.01	2565.0
19.02	2569.0
19.03	2568.0
19.04	2564.0
19.05	2523.0
19.06	2466.0
19.07	2455.0
19.08	2515.0
19.09	2533.0
19.1	2502.0
19.11	2444.0
19.12	2484.0
19.13	2527.0
19.14	2495.0
19.15	2484.0
19.16	2506.0
19.17	2543.0
19.18	2528.0
19.19	2553.0
19.2	2567.0
19.21	2531.0
19.22	2498.0
19.23	2495.0
19.24	2515.0
19.25	2526.0
19.26	2522.0
19.27	2503.0
19.28	2477.0
19.29	2460.0
19.3	2506.0
19.31	2564.0
19.32	2582.0
19.33	2512.0
19.34	2489.0
19.35	2488.0
19.36	2469.0
19.37	2504.0
19.38	2526.0
19.39	2531.0
19.4	2527.0
19.41	2538.0
19.42	2533.0
19.43	2504.0
19.44	2500.0
19.45	2485.0
19.46	2488.0
19.47	2523.0
19.48	2468.0
19.49	2447.0
19.5	2464.0
19.51	2486.0
19.52	2488.0
19.53	2492.0
19.54	2494.0
19.55	2505.0
19.56	2490.0
19.57	2457.0
19.58	2447.0
19.59	2482.0
19.6	2533.0
19.61	2486.0
19.62	2476.0
19.63	2490.0
19.64	2463.0
19.65	2414.0
19.66	2441.0
19.67	2471.0
19.68	2465.0
19.69	2457.0
19.7	2496.0
19.71	2522.0
19.72	2514.0
19.73	2487.0
19.74	2474.0
19.75	2499.0
19.76	2476.0
19.77	2463.0
19.78	2506.0
19.79	2504.0
19.8	2458.0
19.81	2457.0
19.82	2478.0
19.83	2440.0
19.84	2432.0
19.85	2488.0
19.86	2489.0
19.87	2460.0
19.88	2433.0
19.89	2430.0
19.9	2471.0
19.91	2473.0
19.92	2495.0
19.93	2463.0
19.94	2442.0
19.95	2465.0
19.96	2443.0
19.97	2442.0
19.98	2459.0
19.99	2455.0
20.0	2407.0
20.01	2420.0
20.02	2441.0
20.03	2441.0
20.04	2414.0
20.05	2484.0
20.06	2450.0
20.07	2442.0
20.08	2460.0
20.09	2468.0
20.1	2462.0
20.11	2459.0
20.12	2492.0
20.13	2446.0
20.14	2444.0
20.15	2434.0
20.16	2414.0
20.17	2419.0
20.18	2431.0
20.19	2445.0
20.2	2446.0
20.21	2433.0
20.22	2457.0
20.23	2437.0
20.24	2425.0
20.25	2421.0
20.26	2432.0
20.27	2439.0
20.28	2457.0
20.29	2412.0
20.3	2411.0
20.31	2417.0
20.32	2402.0
20.33	2439.0
20.34	2417.0
20.35	2414.0
20.36	2379.0
20.37	2385.0
20.38	2411.0
20.39	2420.0
20.4	2395.0
20.41	2365.0
20.42	2405.0
20.43	2472.0
20.44	2404.0
20.45	2394.0
20.46	2414.0
20.47	2460.0
20.48	2457.0
20.49	2465.0
20.5	2442.0
20.51	2445.0
20.52	2370.0
20.53	2380.0
20.54	2353.0
20.55	2333.0
20.56	2374.0
20.57	2413.0
20.58	2422.0
20.59	2398.0
20.6	2402.0
20.61	2430.0
20.62	2416.0
20.63	2371.0
20.64	2364.0
20.65	2410.0
20.66	2421.0
20.67	2410.0
20.68	2420.0
20.69	2403.0
20.7	2437.0
20.71	2418.0
20.72	2376.0
20.73	2419.0
20.74	2402.0
20.75	2337.0
20.76	2323.0
20.77	2349.0
20.78	2386.0
20.79	2389.0
20.8	2389.0
20.81	2415.0
20.82	2361.0
20.83	2349.0
20.84	2346.0
20.85	2331.0
20.86	2335.0
20.87	2390.0
20.88	2427.0
20.89	2444.0
20.9	2446.0
20.91	2409.0
20.92	2379.0
20.93	2371.0
20.94	2373.0
20.95	2349.0
20.96	2409.0
20.97	2416.0
20.98	2371.0
20.99	2386.0
21.0	2401.0
21.01	2381.0
21.02	2382.0
21.03	2358.0
21.04	2330.0
21.05	2366.0
21.06	2415.0
21.07	2382.0
21.08	2355.0
21.09	2329.0
21.1	2372.0
21.11	2330.0
21.12	2437.0
21.13	2377.0
21.14	2364.0
21.15	2294.0
21.16	2322.0
21.17	2367.0
21.18	2357.0
21.19	2351.0
21.2	2364.0
21.21	2325.0
21.22	2358.0
21.23	2397.0
21.24	2419.0
21.25	2424.0
21.26	2413.0
21.27	2363.0
21.28	2347.0
21.29	2290.0
21.3	2260.0
21.31	2330.0
21.32	2382.0
21.33	2369.0
21.34	2384.0
21.35	2365.0
21.36	2347.0
21.37	2306.0
21.38	2284.0
21.39	2290.0
21.4	2334.0
21.41	2354.0
21.42	2326.0
21.43	2386.0
21.44	2382.0
21.45	2331.0
21.46	2309.0
21.47	2300.0
21.48	2268.0
21.49	2307.0
21.5	2286.0
21.51	2261.0
21.52	2307.0
21.53	2349.0
21.54	2348.0
21.55	2317.0
21.56	2297.0
21.57	2295.0
21.58	2301.0
21.59	2239.0
21.6	2266.0
21.61	2338.0
21.62	2322.0
21.63	2297.0
21.64	2348.0
21.65	2362.0
21.66	2327.0
21.67	2291.0
21.68	2261.0
21.69	2313.0
21.7	2312.0
21.71	2324.0
21.72	2339.0
21.73	2344.0
21.74	2355.0
21.75	2319.0
21.76	2351.0
21.77	2314.0
21.78	2302.0
21.79	2306.0
21.8	2316.0
21.81	2270.0
21.82	2231.0
21.83	2228.0
21.84	2283.0
21.85	2274.0
21.86	2333.0
21.87	2339.0
21.88	2331.0
21.89	2303.0
21.9	2233.0
21.91	2225.0
21.92	2179.0
21.93	2233.0
21.94	2302.0
21.95	2288.0
21.96	2285.0
21.97	2279.0
21.98	2243.0
21.99	2317.0
22.0	2341.0
22.01	2343.0
22.02	2328.0
22.03	2227.0
22.04	2284.0
22.05	2299.0
22.06	2325.0
22.07	2332.0
22.08	2316.0
22.09	2310.0
22.1	2319.0
22.11	2343.0
22.12	2364.0
22.13	2327.0
22.14	2257.0
22.15	2233.0
22.16	2354.0
22.17	2232.0
22.18	2285.0
22.19	2312.0
22.2	2324.0
22.21	2278.0
22.22	2306.0
22.23	2301.0
22.24	2258.0
22.25	2271.0
22.26	2253.0
22.27	2263.0
22.28	2226.0
22.29	2256.0
22.3	2291.0
22.31	2244.0
22.32	2261.0
22.33	2260.0
22.34	2284.0
22.35	2282.0
22.36	2276.0
22.37	2288.0
22.38	2202.0
22.39	2310.0
22.4	2229.0
22.41	2232.0
22.42	2310.0
22.43	2329.0
22.44	2315.0
22.45	2238.0
22.46	2218.0
22.47	2212.0
22.48	2272.0
22.49	2275.0
22.5	2199.0
22.51	2256.0
22.52	2249.0
22.53	2223.0
22.54	2276.0
22.55	2271.0
22.56	2248.0
22.57	2194.0
22.58	2201.0
22.59	2239.0
22.6	2249.0
22.61	2277.0
22.62	2216.0
22.63	2224.0
22.64	2242.0
22.65	2248.0
22.66	2195.0
22.67	2210.0
22.68	2207.0
22.69	2228.0
22.7	2232.0
22.71	2262.0
22.72	2205.0
22.73	2214.0
22.74	2248.0
22.75	2251.0
22.76	2197.0
22.77	2245.0
22.78	2262.0
22.79	2305.0
22.8	2239.0
22.81	2307.0
22.82	2242.0
22.83	2237.0
22.84	2265.0
22.85	2242.0
22.86	2251.0
22.87	2270.0
22.88	2268.0
22.89	2251.0
22.9	2312.0
22.91	2242.0
22.92	2241.0
22.93	2301.0
22.94	2287.0
22.95	2274.0
22.96	2257.0
22.97	2290.0
22.98	2249.0
22.99	2267.0
23.0	2239.0
23.01	2249.0
23.02	2258.0
23.03	2263.0
23.04	2274.0
23.05	2273.0
23.06	2286.0
23.07	2280.0
23.08	2280.0
23.09	2285.0
23.1	2277.0
23.11	2266.0
23.12	2243.0
23.13	2217.0
23.14	2260.0
23.15	2253.0
23.16	2225.0
23.17	2246.0
23.18	2205.0
23.19	2223.0
23.2	2230.0
23.21	2188.0
23.22	2231.0
23.23	2289.0
23.24	2268.0
23.25	2261.0
23.26	2258.0
23.27	2200.0
23.28	2156.0
23.29	2209.0
23.3	2242.0
23.31	2190.0
23.32	2225.0
23.33	2261.0
23.34	2271.0
23.35	2231.0
23.36	2227.0
23.37	2240.0
23.38	2226.0
23.39	2230.0
23.4	2205.0
23.41	2270.0
23.42	2259.0
23.43	2194.0
23.44	2191.0
23.45	2228.0
23.46	2183.0
23.47	2184.0
23.48	2199.0
23.49	2236.0
23.5	2270.0
23.51	2217.0
23.52	2247.0
23.53	2210.0
23.54	2178.0
23.55	2188.0
23.56	2192.0
23.57	2207.0
23.58	2196.0
23.59	2179.0
23.6	2176.0
23.61	2189.0
23.62	2207.0
23.63	2171.0
23.64	2175.0
23.65	2148.0
23.66	2179.0
23.67	2175.0
23.68	2180.0
23.69	2186.0
23.7	2198.0
23.71	2194.0
23.72	2183.0
23.73	2193.0
23.74	2163.0
23.75	2192.0
23.76	2176.0
23.77	2156.0
23.78	2130.0
23.79	2144.0
23.8	2176.0
23.81	2182.0
23.82	2205.0
23.83	2181.0
23.84	2104.0
23.85	2147.0
23.86	2158.0
23.87	2207.0
23.88	2149.0
23.89	2110.0
23.9	2139.0
23.91	2167.0
23.92	2158.0
23.93	2174.0
23.94	2215.0
23.95	2206.0
23.96	2207.0
23.97	2176.0
23.98	2177.0
23.99	2135.0
24.0	2161.0
24.01	2193.0
24.02	2175.0
24.03	2221.0
24.04	2172.0
24.05	2139.0
24.06	2159.0
24.07	2158.0
24.08	2186.0
24.09	2152.0
24.1	2127.0
24.11	2146.0
24.12	2127.0
24.13	2133.0
24.14	2141.0
24.15	2136.0
24.16	2157.0
24.17	2122.0
24.18	2156.0
24.19	2207.0
24.2	2191.0
24.21	2142.0
24.22	2103.0
24.23	2117.0
24.24	2163.0
24.25	2196.0
24.26	2173.0
24.27	2125.0
24.28	2145.0
24.29	2140.0
24.3	2113.0
24.31	2134.0
24.32	2137.0
24.33	2142.0
24.34	2167.0
24.35	2172.0
24.36	2127.0
24.37	2100.0
24.38	2118.0
24.39	2148.0
24.4	2131.0
24.41	2107.0
24.42	2100.0
24.43	2105.0
24.44	2125.0
24.45	2133.0
24.46	2128.0
24.47	2096.0
24.48	2144.0
24.49	2112.0
24.5	2142.0
24.51	2149.0
24.52	2179.0
24.53	2145.0
24.54	2175.0
24.55	2155.0
24.56	2111.0
24.57	2106.0
24.58	2147.0
24.59	2123.0
24.6	2146.0
24.61	2184.0
24.62	2161.0
24.63	2145.0
24.64	2166.0
24.65	2125.0
24.66	2107.0
24.67	2075.0
24.68	2131.0
24.69	2181.0
24.7	2132.0
24.71	2059.0
24.72	2108.0
24.73	2112.0
24.74	2114.0
24.75	2057.0
24.76	2048.0
24.77	2061.0
24.78	2105.0
24.79	2136.0
24.8	2139.0
24.81	2112.0
24.82	2086.0
24.83	2102.0
24.84	2070.0
24.85	2049.0
24.86	2060.0
24.87	2104.0
24.88	2167.0
24.89	2189.0
24.9	2137.0
24.91	2081.0
24.92	2111.0
24.93	2136.0
24.94	2126.0
24.95	2114.0
24.96	2121.0
24.97	2164.0
24.98	2106.0
24.99	2046.0
25.0	2085.0
25.01	2091.0
25.02	2100.0
25.03	2104.0
25.04	2142.0
25.05	2151.0
25.06	2074.0
25.07	2059.0
25.08	2063.0
25.09	2079.0
25.1	2119.0
25.11	2103.0
25.12	2068.0
25.13	2050.0
25.14	2073.0
25.15	2104.0
25.16	2111.0
25.17	2136.0
25.18	2080.0
25.19	2071.0
25.2	2112.0
25.21	2118.0
25.22	2100.0
25.23	2101.0
25.24	2089.0
25.25	2072.0
25.26	2081.0
25.27	2089.0
25.28	2118.0
25.29	2153.0
25.3	2111.0
25.31	2093.0
25.32	2108.0
25.33	2098.0
25.34	2122.0
25.35	2123.0
25.36	2110.0
25.37	2136.0
25.38	2081.0
25.39	2063.0
25.4	2070.0
25.41	2058.0
25.42	2098.0
25.43	2161.0
25.44	2164.0
25.45	2102.0
25.46	2085.0
25.47	2077.0
25.48	2046.0
25.49	2036.0
25.5	2071.0
25.51	2075.0
25.52	2077.0
25.53	2079.0
25.54	2110.0
25.55	2126.0
25.56	2144.0
25.57	2117.0
25.58	2051.0
25.59	2096.0
25.6	2105.0
25.61	2100.0
25.62	2122.0
25.63	2141.0
25.64	2108.0
25.65	2083.0
25.66	2082.0
25.67	2070.0
25.68	2059.0
25.69	2049.0
25.7	2110.0
25.71	2137.0
25.72	2083.0
25.73	2062.0
25.74	2033.0
25.75	2066.0
25.76	2098.0
25.77	2081.0
25.78	2077.0
25.79	2105.0
25.8	2094.0
25.81	2072.0
25.82	2064.0
25.83	2092.0
25.84	2091.0
25.85	2087.0
25.86	2056.0
25.87	2013.0
25.88	2006.0
25.89	2031.0
25.9	2080.0
25.91	2099.0
25.92	2093.0
25.93	2071.0
25.94	2056.0
25.95	2059.0
25.96	2094.0
25.97	2090.0
25.98	2057.0
25.99	2036.0
26.0	2065.0
26.01	2093.0
26.02	2055.0
26.03	2042.0
26.04	2076.0
26.05	2069.0
26.06	2023.0
26.07	2056.0
26.08	2112.0
26.09	2120.0
26.1	2092.0
26.11	2080.0
26.12	2093.0
26.13	2086.0
26.14	2074.0
26.15	2061.0
26.16	2069.0
26.17	2079.0
26.18	2065.0
26.19	2048.0
26.2	2037.0
26.21	2065.0
26.22	2098.0
26.23	2112.0
26.24	2111.0
26.25	2097.0
26.26	2091.0
26.27	2128.0
26.28	2093.0
26.29	2019.0
26.3	1983.0
26.31	2003.0
26.32	2041.0
26.33	2067.0
26.34	2067.0
26.35	2045.0
26.36	2032.0
26.37	2027.0
26.38	2040.0
26.39	2073.0
26.4	2060.0
26.41	2028.0
26.42	2052.0
26.43	2068.0
26.44	2105.0
26.45	2120.0
26.46	2074.0
26.47	2062.0
26.48	2091.0
26.49	2110.0
26.5	2123.0
26.51	2088.0
26.52	2041.0
26.53	2069.0
26.54	2104.0
26.55	2082.0
26.56	2063.0
26.57	2076.0
26.58	2080.0
26.59	2082.0
26.6	2096.0
26.61	2119.0
26.62	2104.0
26.63	2097.0
26.64	2105.0
26.65	2093.0
26.66	2117.0
26.67	2120.0
26.68	2054.0
26.69	2020.0
26.7	2047.0
26.71	2109.0
26.72	2152.0
26.73	2136.0
26.74	2090.0
26.75	2077.0
26.76	2081.0
26.77	2116.0
26.78	2131.0
26.79	2096.0
26.8	2080.0
26.81	2086.0
26.82	2095.0
26.83	2077.0
26.84	2074.0
26.85	2056.0
26.86	2018.0
26.87	2050.0
26.88	2080.0
26.89	2100.0
26.9	2111.0
26.91	2078.0
26.92	2082.0
26.93	2098.0
26.94	2080.0
26.95	2072.0
26.96	2076.0
26.97	2062.0
26.98	2063.0
26.99	2102.0
27.0	2100.0
27.01	2075.0
27.02	2063.0
27.03	2097.0
27.04	2123.0
27.05	2107.0
27.06	2119.0
27.07	2129.0
27.08	2088.0
27.09	2026.0
27.1	2032.0
27.11	2085.0
27.12	2125.0
27.13	2140.0
27.14	2111.0
27.15	2091.0
27.16	2118.0
27.17	2134.0
27.18	2126.0
27.19	2088.0
27.2	2061.0
27.21	2101.0
27.22	2146.0
27.23	2159.0
27.24	2139.0
27.25	2148.0
27.26	2153.0
27.27	2112.0
27.28	2124.0
27.29	2131.0
27.3	2122.0
27.31	2133.0
27.32	2143.0
27.33	2150.0
27.34	2146.0
27.35	2152.0
27.36	2153.0
27.37	2127.0
27.38	2134.0
27.39	2178.0
27.4	2176.0
27.41	2144.0
27.42	2134.0
27.43	2148.0
27.44	2177.0
27.45	2202.0
27.46	2188.0
27.47	2157.0
27.48	2175.0
27.49	2194.0
27.5	2203.0
27.51	2247.0
27.52	2237.0
27.53	2183.0
27.54	2182.0
27.55	2251.0
27.56	2300.0
27.57	2256.0
27.58	2240.0
27.59	2237.0
27.6	2196.0
27.61	2168.0
27.62	2180.0
27.63	2232.0
27.64	2251.0
27.65	2247.0
27.66	2274.0
27.67	2272.0
27.68	2243.0
27.69	2247.0
27.7	2267.0
27.71	2291.0
27.72	2318.0
27.73	2309.0
27.74	2307.0
27.75	2332.0
27.76	2338.0
27.77	2331.0
27.78	2333.0
27.79	2316.0
27.8	2326.0
27.81	2380.0
27.82	2407.0
27.83	2382.0
27.84	2379.0
27.85	2420.0
27.86	2408.0
27.87	2372.0
27.88	2392.0
27.89	2432.0
27.9	2439.0
27.91	2469.0
27.92	2486.0
27.93	2428.0
27.94	2431.0
27.95	2495.0
27.96	2538.0
27.97	2547.0
27.98	2538.0
27.99	2504.0
28.0	2528.0
28.01	2553.0
28.02	2574.0
28.03	2618.0
28.04	2635.0
28.05	2651.0
28.06	2690.0
28.07	2739.0
28.08	2772.0
28.09	2765.0
28.1	2746.0
28.11	2759.0
28.12	2790.0
28.13	2782.0
28.14	2800.0
28.15	2904.0
28.16	2979.0
28.17	3005.0
28.18	3001.0
28.19	3032.0
28.2	3072.0
28.21	3103.0
28.22	3149.0
28.23	3172.0
28.24	3188.0
28.25	3279.0
28.26	3405.0
28.27	3446.0
28.28	3429.0
28.29	3477.0
28.3	3528.0
28.31	3585.0
28.32	3662.0
28.33	3724.0
28.34	3822.0
28.35	3869.0
28.36	3909.0
28.37	4014.0
28.38	4110.0
28.39	4245.0
28.4	4375.0
28.41	4432.0
28.42	4538.0
28.43	4723.0
28.44	4883.0
28.45	5016.0
28.46	5082.0
28.47	5260.0
28.48	5525.0
28.49	5723.0
28.5	5842.0
28.51	5985.0
28.52	6168.0
28.53	6373.0
28.54	6585.0
28.55	6826.0
28.56	7044.0
28.57	7211.0
28.58	7431.0
28.59	7673.0
28.6	7831.0
28.61	7937.0
28.62	8083.0
28.63	8170.0
28.64	8219.0
28.65	8250.0
28.66	8207.0
28.67	8158.0
28.68	8118.0
28.69	7973.0
28.7	7829.0
28.71	7723.0
28.72	7521.0
28.73	7215.0
28.74	6979.0
28.75	6785.0
28.76	6596.0
28.77	6336.0
28.78	6097.0
28.79	5827.0
28.8	5650.0
28.81	5562.0
28.82	5353.0
28.83	5151.0
28.84	4976.0
28.85	4829.0
28.86	4676.0
28.87	4586.0
28.88	4435.0
28.89	4248.0
28.9	4136.0
28.91	4102.0
28.92	4036.0
28.93	3925.0
28.94	3807.0
28.95	3725.0
28.96	3673.0
28.97	3621.0
28.98	3509.0
28.99	3507.0
29.0	3465.0
29.01	3393.0
29.02	3279.0
29.03	3253.0
29.04	3271.0
29.05	3165.0
29.06	3082.0
29.07	3088.0
29.08	3021.0
29.09	2943.0
29.1	2912.0
29.11	2914.0
29.12	2893.0
29.13	2884.0
29.14	2851.0
29.15	2759.0
29.16	2724.0
29.17	2712.0
29.18	2696.0
29.19	2657.0
29.2	2592.0
29.21	2561.0
29.22	2569.0
29.23	2559.0
29.24	2595.0
29.25	2627.0
29.26	2576.0
29.27	2608.0
29.28	2548.0
29.29	2471.0
29.3	2473.0
29.31	2440.0
29.32	2429.0
29.33	2474.0
29.34	2462.0
29.35	2415.0
29.36	2364.0
29.37	2410.0
29.38	2414.0
29.39	2386.0
29.4	2353.0
29.41	2378.0
29.42	2387.0
29.43	2395.0
29.44	2346.0
29.45	2375.0
29.46	2272.0
29.47	2248.0
29.48	2311.0
29.49	2305.0
29.5	2255.0
29.51	2287.0
29.52	2262.0
29.53	2194.0
29.54	2209.0
29.55	2237.0
29.56	2219.0
29.57	2209.0
29.58	2220.0
29.59	2201.0
29.6	2185.0
29.61	2219.0
29.62	2184.0
29.63	2108.0
29.64	2175.0
29.65	2209.0
29.66	2244.0
29.67	2208.0
29.68	2237.0
29.69	2194.0
29.7	2182.0
29.71	2164.0
29.72	2155.0
29.73	2117.0
29.74	2120.0
29.75	2102.0
29.76	2064.0
29.77	2114.0
29.78	2133.0
29.79	2086.0
29.8	2053.0
29.81	2112.0
29.82	2137.0
29.83	2106.0
29.84	2092.0
29.85	2128.0
29.86	2104.0
29.87	2123.0
29.88	2102.0
29.89	2114.0
29.9	2099.0
29.91	2118.0
29.92	2103.0
29.93	2091.0
29.94	2124.0
29.95	2123.0
29.96	2073.0
29.97	2063.0
29.98	2060.0
29.99	2059.0
30.0	2090.0
30.01	2083.0
30.02	2065.0
30.03	2057.0
30.04	2053.0
30.05	2049.0
30.06	2069.0
30.07	2081.0
30.08	2103.0
30.09	2082.0
30.1	2042.0
30.11	2033.0
30.12	2024.0
30.13	2055.0
30.14	2044.0
30.15	2072.0
30.16	2077.0
30.17	2046.0
30.18	2075.0
30.19	2109.0
30.2	2074.0
30.21	2120.0
30.22	2110.0
30.23	2051.0
30.24	2033.0
30.25	2027.0
30.26	2037.0
30.27	2042.0
30.28	2015.0
30.29	1973.0
30.3	1997.0
30.31	2022.0
30.32	1991.0
30.33	2024.0
30.34	2044.0
30.35	2050.0
30.36	2090.0
30.37	2031.0
30.38	1991.0
30.39	2026.0
30.4	2023.0
30.41	2042.0
30.42	1988.0
30.43	2002.0
30.44	2027.0
30.45	2012.0
30.46	1978.0
30.47	1982.0
30.48	2009.0
30.49	1959.0
30.5	1984.0
30.51	1999.0
30.52	1958.0
30.53	1953.0
30.54	1988.0
30.55	2012.0
30.56	1991.0
30.57	2006.0
30.58	1991.0
30.59	2003.0
30.6	1995.0
30.61	1966.0
30.62	1994.0
30.63	2038.0
30.64	2019.0
30.65	2030.0
30.66	1973.0
30.67	2023.0
30.68	2043.0
30.69	2019.0
30.7	1965.0
30.71	1966.0
30.72	1972.0
30.73	1960.0
30.74	1935.0
30.75	1923.0
30.76	1957.0
30.77	1974.0
30.78	1955.0
30.79	1954.0
30.8	1979.0
30.81	1935.0
30.82	1986.0
30.83	1989.0
30.84	1932.0
30.85	1958.0
30.86	1948.0
30.87	1985.0
30.88	1938.0
30.89	1925.0
30.9	1957.0
30.91	1932.0
30.92	1969.0
30.93	1973.0
30.94	1964.0
30.95	1926.0
30.96	1939.0
30.97	1903.0
30.98	1931.0
30.99	1947.0
31.0	1958.0
31.01	1966.0
31.02	1989.0
31.03	1932.0
31.04	1948.0
31.05	1957.0
31.06	1951.0
31.07	1989.0
31.08	1914.0
31.09	1926.0
31.1	1969.0
31.11	1977.0
31.12	1904.0
31.13	1932.0
31.14	1922.0
31.15	1973.0
31.16	1938.0
31.17	1926.0
31.18	1964.0
31.19	1983.0
31.2	1902.0
31.21	1904.0
31.22	1928.0
31.23	1930.0
31.24	1893.0
31.25	1912.0
31.26	1935.0
31.27	1975.0
31.28	1952.0
31.29	1937.0
31.3	1906.0
31.31	1930.0
31.32	1934.0
31.33	1951.0
31.34	1903.0
31.35	1910.0
31.36	1937.0
31.37	1938.0
31.38	1942.0
31.39	1882.0
31.4	1880.0
31.41	1894.0
31.42	1896.0
31.43	1917.0
31.44	1908.0
31.45	1878.0
31.46	1905.0
31.47	1886.0
31.48	1884.0
31.49	1853.0
31.5	1869.0
31.51	1901.0
31.52	1907.0
31.53	1964.0
31.54	1994.0
31.55	1963.0
31.56	1912.0
31.57	1868.0
31.58	1869.0
31.59	1920.0
31.6	1925.0
31.61	1922.0
31.62	1900.0
31.63	1895.0
31.64	1917.0
31.65	1904.0
31.66	1923.0
31.67	1911.0
31.68	1916.0
31.69	1900.0
31.7	1869.0
31.71	1901.0
31.72	1933.0
31.73	1854.0
31.74	1883.0
31.75	1920.0
31.76	1849.0
31.77	1896.0
31.78	1865.0
31.79	1866.0
31.8	1893.0
31.81	1895.0
31.82	1936.0
31.83	1948.0
31.84	1890.0
31.85	1888.0
31.86	1896.0
31.87	1853.0
31.88	1890.0
31.89	1872.0
31.9	1892.0
31.91	1960.0
31.92	1934.0
31.93	1921.0
31.94	1879.0
31.95	1894.0
31.96	1899.0
31.97	1935.0
31.98	1883.0
31.99	1868.0
32.0	1880.0
32.01	1897.0
32.02	1908.0
32.03	1897.0
32.04	1918.0
32.05	1926.0
32.06	1952.0
32.07	1939.0
32.08	1908.0
32.09	1920.0
32.1	1956.0
32.11	1968.0
32.12	1915.0
32.13	1856.0
32.14	1887.0
32.15	1877.0
32.16	1880.0
32.17	1856.0
32.18	1997.0
32.19	1961.0
32.2	1945.0
32.21	1908.0
32.22	1897.0
32.23	1930.0
32.24	1928.0
32.25	1941.0
32.26	1909.0
32.27	1907.0
32.28	1900.0
32.29	1928.0
32.3	1937.0
32.31	1966.0
32.32	1965.0
32.33	1890.0
32.34	1933.0
32.35	1904.0
32.36	1922.0
32.37	1970.0
32.38	1936.0
32.39	1901.0
32.4	1948.0
32.41	1919.0
32.42	1920.0
32.43	1921.0
32.44	1969.0
32.45	1970.0
32.46	2016.0
32.47	2036.0
32.48	2018.0
32.49	2000.0
32.5	1972.0
32.51	1956.0
32.52	1979.0
32.53	1926.0
32.54	1943.0
32.55	1976.0
32.56	2053.0
32.57	2055.0
32.58	2013.0
32.59	1995.0
32.6	1974.0
32.61	2063.0
32.62	1999.0
32.63	1996.0
32.64	1991.0
32.65	2072.0
32.66	2039.0
32.67	2012.0
32.68	2019.0
32.69	2067.0
32.7	2110.0
32.71	2114.0
32.72	2129.0
32.73	2131.0
32.74	2170.0
32.75	2159.0
32.76	2176.0
32.77	2118.0
32.78	2136.0
32.79	2129.0
32.8	2142.0
32.81	2124.0
32.82	2103.0
32.83	2094.0
32.84	2067.0
32.85	2106.0
32.86	2096.0
32.87	2131.0
32.88	2191.0
32.89	2152.0
32.9	2107.0
32.91	2155.0
32.92	2174.0
32.93	2143.0
32.94	2115.0
32.95	2150.0
32.96	2188.0
32.97	2156.0
32.98	2108.0
32.99	2123.0
33.0	2117.0
33.01	2071.0
33.02	2092.0
33.03	2127.0
33.04	2071.0
33.05	2062.0
33.06	2095.0
33.07	2082.0
33.08	2088.0
33.09	2083.0
33.1	2085.0
33.11	2115.0
33.12	2099.0
33.13	2094.0
33.14	2081.0
33.15	2098.0
33.16	2082.0
33.17	2104.0
33.18	2054.0
33.19	2036.0
33.2	2049.0
33.21	2063.0
33.22	2063.0
33.23	2066.0
33.24	2046.0
33.25	2009.0
33.26	2015.0
33.27	2008.0
33.28	1987.0
33.29	1972.0
33.3	2014.0
33.31	2024.0
33.32	2031.0
33.33	2011.0
33.34	1976.0
33.35	1980.0
33.36	1934.0
33.37	1953.0
33.38	1970.0
33.39	1952.0
33.4	1975.0
33.41	1983.0
33.42	1926.0
33.43	1884.0
33.44	1920.0
33.45	1905.0
33.46	1926.0
33.47	1933.0
33.48	1905.0
33.49	1913.0
33.5	1868.0
33.51	1877.0
33.52	1884.0
33.53	1854.0
33.54	1848.0
33.55	1878.0
33.56	1903.0
33.57	1886.0
33.58	1910.0
33.59	1885.0
33.6	1868.0
33.61	1888.0
33.62	1875.0
33.63	1846.0
33.64	1909.0
33.65	1851.0
33.66	1838.0
33.67	1858.0
33.68	1828.0
33.69	1832.0
33.7	1846.0
33.71	1849.0
33.72	1872.0
33.73	1884.0
33.74	1902.0
33.75	1904.0
33.76	1880.0
33.77	1861.0
33.78	1855.0
33.79	1815.0
33.8	1816.0
33.81	1885.0
33.82	1857.0
33.83	1852.0
33.84	1905.0
33.85	1889.0
33.86	1838.0
33.87	1824.0
33.88	1811.0
33.89	1836.0
33.9	1858.0
33.91	1821.0
33.92	1805.0
33.93	1837.0
33.94	1861.0
33.95	1849.0
33.96	1830.0
33.97	1839.0
33.98	1836.0
33.99	1813.0
34.0	1838.0
34.01	1843.0
34.02	1811.0
34.03	1791.0
34.04	1859.0
34.05	1873.0
34.06	1831.0
34.07	1882.0
34.08	1870.0
34.09	1863.0
34.1	1811.0
34.11	1804.0
34.12	1863.0
34.13	1879.0
34.14	1842.0
34.15	1851.0
34.16	1875.0
34.17	1831.0
34.18	1789.0
34.19	1793.0
34.2	1831.0
34.21	1825.0
34.22	1829.0
34.23	1837.0
34.24	1832.0
34.25	1844.0
34.26	1896.0
34.27	1875.0
34.28	1838.0
34.29	1854.0
34.3	1843.0
34.31	1840.0
34.32	1851.0
34.33	1844.0
34.34	1808.0
34.35	1792.0
34.36	1807.0
34.37	1832.0
34.38	1881.0
34.39	1862.0
34.4	1834.0
34.41	1812.0
34.42	1769.0
34.43	1770.0
34.44	1858.0
34.45	1857.0
34.46	1817.0
34.47	1828.0
34.48	1852.0
34.49	1864.0
34.5	1856.0
34.51	1808.0
34.52	1782.0
34.53	1795.0
34.54	1855.0
34.55	1876.0
34.56	1865.0
34.57	1875.0
34.58	1867.0
34.59	1840.0
34.6	1812.0
34.61	1796.0
34.62	1817.0
34.63	1838.0
34.64	1828.0
34.65	1832.0
34.66	1831.0
34.67	1837.0
34.68	1833.0
34.69	1776.0
34.7	1794.0
34.71	1882.0
34.72	1876.0
34.73	1820.0
34.74	1822.0
34.75	1815.0
34.76	1828.0
34.77	1814.0
34.78	1807.0
34.79	1822.0
34.8	1795.0
34.81	1795.0
34.82	1871.0
34.83	1867.0
34.84	1819.0
34.85	1798.0
34.86	1823.0
34.87	1828.0
34.88	1816.0
34.89	1821.0
34.9	1859.0
34.91	1847.0
34.92	1811.0
34.93	1818.0
34.94	1818.0
34.95	1831.0
34.96	1851.0
34.97	1836.0
34.98	1842.0
34.99	1849.0
35.0	1847.0
35.01	1855.0
35.02	1850.0
35.03	1828.0
35.04	1810.0
35.05	1813.0
35.06	1822.0
35.07	1817.0
35.08	1789.0
35.09	1785.0
35.1	1820.0
35.11	1851.0
35.12	1854.0
35.13	1773.0
35.14	1779.0
35.15	1831.0
35.16	1887.0
35.17	1879.0
35.18	1893.0
35.19	1861.0
35.2	1816.0
35.21	1852.0
35.22	1876.0
35.23	1839.0
35.24	1786.0
35.25	1788.0
35.26	1841.0
35.27	1843.0
35.28	1813.0
35.29	1834.0
35.3	1856.0
35.31	1893.0
35.32	1876.0
35.33	1844.0
35.34	1845.0
35.35	1816.0
35.36	1799.0
35.37	1805.0
35.38	1829.0
35.39	1808.0
35.4	1813.0
35.41	1833.0
35.42	1837.0
35.43	1849.0
35.44	1826.0
35.45	1811.0
35.46	1850.0
35.47	1887.0
35.48	1879.0
35.49	1889.0
35.5	1874.0
35.51	1868.0
35.52	1856.0
35.53	1859.0
35.54	1883.0
35.55	1909.0
35.56	1893.0
35.57	1890.0
35.58	1882.0
35.59	1855.0
35.6	1829.0
35.61	1826.0
35.62	1869.0
35.63	1893.0
35.64	1850.0
35.65	1832.0
35.66	1846.0
35.67	1844.0
35.68	1865.0
35.69	1867.0
35.7	1860.0
35.71	1868.0
35.72	1837.0
35.73	1840.0
35.74	1885.0
35.75	1881.0
35.76	1905.0
35.77	1895.0
35.78	1849.0
35.79	1856.0
35.8	1886.0
35.81	1924.0
35.82	1916.0
35.83	1887.0
35.84	1886.0
35.85	1864.0
35.86	1855.0
35.87	1879.0
35.88	1890.0
35.89	1909.0
35.9	1935.0
35.91	1933.0
35.92	1902.0
35.93	1892.0
35.94	1903.0
35.95	1883.0
35.96	1875.0
35.97	1893.0
35.98	1933.0
35.99	1964.0
36.0	1961.0
36.01	1964.0
36.02	1965.0
36.03	1919.0
36.04	1895.0
36.05	1912.0
36.06	1937.0
36.07	1942.0
36.08	1922.0
36.09	1940.0
36.1	1974.0
36.11	1979.0
36.12	1968.0
36.13	1953.0
36.14	1925.0
36.15	1933.0
36.16	1941.0
36.17	1941.0
36.18	1993.0
36.19	2020.0
36.2	1978.0
36.21	1971.0
36.22	1962.0
36.23	1918.0
36.24	1919.0
36.25	1965.0
36.26	1989.0
36.27	1985.0
36.28	1980.0
36.29	1971.0
36.3	1971.0
36.31	1985.0
36.32	2001.0
36.33	2019.0
36.34	2037.0
36.35	2018.0
36.36	2003.0
36.37	1991.0
36.38	1971.0
36.39	1985.0
36.4	2027.0
36.41	2052.0
36.42	2040.0
36.43	2056.0
36.44	2100.0
36.45	2109.0
36.46	2099.0
36.47	2082.0
36.48	2056.0
36.49	2059.0
36.5	2079.0
36.51	2084.0
36.52	2080.0
36.53	2098.0
36.54	2113.0
36.55	2114.0
36.56	2121.0
36.57	2114.0
36.58	2126.0
36.59	2180.0
36.6	2187.0
36.61	2162.0
36.62	2163.0
36.63	2195.0
36.64	2200.0
36.65	2192.0
36.66	2212.0
36.67	2225.0
36.68	2253.0
36.69	2244.0
36.7	2221.0
36.71	2261.0
36.72	2283.0
36.73	2263.0
36.74	2262.0
36.75	2281.0
36.76	2326.0
36.77	2366.0
36.78	2401.0
36.79	2388.0
36.8	2365.0
36.81	2417.0
36.82	2486.0
36.83	2531.0
36.84	2579.0
36.85	2584.0
36.86	2574.0
36.87	2613.0
36.88	2621.0
36.89	2659.0
36.9	2730.0
36.91	2755.0
36.92	2749.0
36.93	2780.0
36.94	2855.0
36.95	2894.0
36.96	2915.0
36.97	2945.0
36.98	3021.0
36.99	3100.0
37.0	3104.0
37.01	3128.0
37.02	3140.0
37.03	3158.0
37.04	3256.0
37.05	3337.0
37.06	3388.0
37.07	3418.0
37.08	3462.0
37.09	3550.0
37.1	3634.0
37.11	3700.0
37.12	3771.0
37.13	3841.0
37.14	3883.0
37.15	3931.0
37.16	4016.0
37.17	4078.0
37.18	4102.0
37.19	4154.0
37.2	4261.0
37.21	4331.0
37.22	4341.0
37.23	4406.0
37.24	4464.0
37.25	4529.0
37.26	4611.0
37.27	4646.0
37.28	4684.0
37.29	4760.0
37.3	4850.0
37.31	4890.0
37.32	4908.0
37.33	4845.0
37.34	4777.0
37.35	4809.0
37.36	4809.0
37.37	4766.0
37.38	4746.0
37.39	4796.0
37.4	4753.0
37.41	4596.0
37.42	4531.0
37.43	4493.0
37.44	4501.0
37.45	4422.0
37.46	4299.0
37.47	4236.0
37.48	4170.0
37.49	4112.0
37.5	4081.0
37.51	3999.0
37.52	3950.0
37.53	3926.0
37.54	3866.0
37.55	3768.0
37.56	3682.0
37.57	3629.0
37.58	3591.0
37.59	3571.0
37.6	3515.0
37.61	3426.0
37.62	3354.0
37.63	3278.0
37.64	3235.0
37.65	3248.0
37.66	3202.0
37.67	3165.0
37.68	3119.0
37.69	3015.0
37.7	2956.0
37.71	2973.0
37.72	2946.0
37.73	2891.0
37.74	2822.0
37.75	2780.0
37.76	2775.0
37.77	2733.0
37.78	2680.0
37.79	2648.0
37.8	2638.0
37.81	2620.0
37.82	2603.0
37.83	2582.0
37.84	2543.0
37.85	2503.0
37.86	2523.0
37.87	2542.0
37.88	2495.0
37.89	2454.0
37.9	2462.0
37.91	2416.0
37.92	2371.0
37.93	2354.0
37.94	2354.0
37.95	2339.0
37.96	2330.0
37.97	2328.0
37.98	2314.0
37.99	2271.0
38.0	2268.0
38.01	2257.0
38.02	2265.0
38.03	2310.0
38.04	2279.0
38.05	2223.0
38.06	2194.0
38.07	2182.0
38.08	2191.0
38.09	2196.0
38.1	2148.0
38.11	2141.0
38.12	2175.0
38.13	2179.0
38.14	2212.0
38.15	2184.0
38.16	2124.0
38.17	2139.0
38.18	2178.0
38.19	2163.0
38.2	2124.0
38.21	2090.0
38.22	2066.0
38.23	2063.0
38.24	2077.0
38.25	2084.0
38.26	2056.0
38.27	2045.0
38.28	2042.0
38.29	2056.0
38.3	2090.0
38.31	2096.0
38.32	2091.0
38.33	2038.0
38.34	2004.0
38.35	2019.0
38.36	1990.0
38.37	1996.0
38.38	2017.0
38.39	2006.0
38.4	1994.0
38.41	2002.0
38.42	1988.0
38.43	1980.0
38.44	2003.0
38.45	2009.0
38.46	1997.0
38.47	1963.0
38.48	1961.0
38.49	1986.0
38.5	1976.0
38.51	1938.0
38.52	1943.0
38.53	1941.0
38.54	1932.0
38.55	1881.0
38.56	1896.0
38.57	1897.0
38.58	1883.0
38.59	1937.0
38.6	1957.0
38.61	1972.0
38.62	1970.0
38.63	1943.0
38.64	1927.0
38.65	1916.0
38.66	1946.0
38.67	1967.0
38.68	1941.0
38.69	1918.0
38.7	1928.0
38.71	1968.0
38.72	1914.0
38.73	1873.0
38.74	1881.0
38.75	1909.0
38.76	1930.0
38.77	1894.0
38.78	1844.0
38.79	1869.0
38.8	1915.0
38.81	1894.0
38.82	1875.0
38.83	1880.0
38.84	1864.0
38.85	1879.0
38.86	1894.0
38.87	1869.0
38.88	1869.0
38.89	1925.0
38.9	1913.0
38.91	1906.0
38.92	1945.0
38.93	1919.0
38.94	1876.0
38.95	1860.0
38.96	1860.0
38.97	1870.0
38.98	1883.0
38.99	1879.0
39.0	1901.0
39.01	1886.0
39.02	1900.0
39.03	1876.0
39.04	1890.0
39.05	1907.0
39.06	1899.0
39.07	1895.0
39.08	1858.0
39.09	1869.0
39.1	1905.0
39.11	1874.0
39.12	1862.0
39.13	1892.0
39.14	1870.0
39.15	1849.0
39.16	1824.0
39.17	1847.0
39.18	1900.0
39.19	1888.0
39.2	1866.0
39.21	1798.0
39.22	1812.0
39.23	1837.0
39.24	1847.0
39.25	1807.0
39.26	1817.0
39.27	1858.0
39.28	1871.0
39.29	1858.0
39.3	1860.0
39.31	1807.0
39.32	1792.0
39.33	1808.0
39.34	1862.0
39.35	1836.0
39.36	1832.0
39.37	1826.0
39.38	1848.0
39.39	1863.0
39.4	1819.0
39.41	1841.0
39.42	1884.0
39.43	1872.0
39.44	1876.0
39.45	1865.0
39.46	1882.0
39.47	1834.0
39.48	1793.0
39.49	1846.0
39.5	1888.0
39.51	1861.0
39.52	1833.0
39.53	1838.0
39.54	1854.0
39.55	1865.0
39.56	1875.0
39.57	1901.0
39.58	1872.0
39.59	1874.0
39.6	1892.0
39.61	1858.0
39.62	1898.0
39.63	1883.0
39.64	1890.0
39.65	1859.0
39.66	1844.0
39.67	1849.0
39.68	1886.0
39.69	1872.0
39.7	1850.0
39.71	1860.0
39.72	1867.0
39.73	1849.0
39.74	1866.0
39.75	1901.0
39.76	1912.0
39.77	1938.0
39.78	1938.0
39.79	1879.0
39.8	1850.0
39.81	1901.0
39.82	1878.0
39.83	1916.0
39.84	1855.0
39.85	1850.0
39.86	1849.0
39.87	1867.0
39.88	1925.0
39.89	1934.0
39.9	1922.0
39.91	1914.0
39.92	1949.0
39.93	1929.0
39.94	1912.0
39.95	1893.0
39.96	1861.0
39.97	1859.0
39.98	1892.0
39.99	1907.0
40.0	1950.0
40.01	1868.0
40.02	1897.0
40.03	1894.0
40.04	1892.0
40.05	1918.0
40.06	1897.0
40.07	1917.0
40.08	1876.0
40.09	1878.0
40.1	1898.0
40.11	1933.0
40.12	1927.0
40.13	1936.0
40.14	1966.0
40.15	1936.0
40.16	1920.0
40.17	1969.0
40.18	1961.0
40.19	1924.0
40.2	1942.0
40.21	1929.0
40.22	1905.0
40.23	1920.0
40.24	1949.0
40.25	1962.0
40.26	1988.0
40.27	2006.0
40.28	1967.0
40.29	2002.0
40.3	2001.0
40.31	1974.0
40.32	1949.0
40.33	1993.0
40.34	2015.0
40.35	1960.0
40.36	1935.0
40.37	1988.0
40.38	1977.0
40.39	1923.0
40.4	1959.0
40.41	1984.0
40.42	2006.0
40.43	2019.0
40.44	1932.0
40.45	1946.0
40.46	1981.0
40.47	2028.0
40.48	1989.0
40.49	1976.0
40.5	1974.0
40.51	1990.0
40.52	1982.0
40.53	1974.0
40.54	2018.0
40.55	2083.0
40.56	2112.0
40.57	2106.0
40.58	2096.0
40.59	2127.0
40.6	2077.0
40.61	2063.0
40.62	2108.0
40.63	2093.0
40.64	2051.0
40.65	2120.0
40.66	2080.0
40.67	2043.0
40.68	2076.0
40.69	2123.0
40.7	2113.0
40.71	2094.0
40.72	2112.0
40.73	2149.0
40.74	2121.0
40.75	2138.0
40.76	2063.0
40.77	2075.0
40.78	2142.0
40.79	2127.0
40.8	2094.0
40.81	2162.0
40.82	2187.0
40.83	2180.0
40.84	2144.0
40.85	2093.0
40.86	2139.0
40.87	2184.0
40.88	2169.0
40.89	2120.0
40.9	2157.0
40.91	2231.0
40.92	2212.0
40.93	2175.0
40.94	2163.0
40.95	2102.0
40.96	2111.0
40.97	2126.0
40.98	2173.0
40.99	2191.0
41.0	2215.0
41.01	2235.0
41.02	2136.0
41.03	2149.0
41.04	2166.0
41.05	2148.0
41.06	2174.0
41.07	2151.0
41.08	2180.0
41.09	2110.0
41.1	2092.0
41.11	2130.0
41.12	2132.0
41.13	2127.0
41.14	2147.0
41.15	2136.0
41.16	2081.0
41.17	2097.0
41.18	2112.0
41.19	2084.0
41.2	2050.0
41.21	2079.0
41.22	2122.0
41.23	2141.0
41.24	2123.0
41.25	2047.0
41.26	2012.0
41.27	2017.0
41.28	2043.0
41.29	2041.0
41.3	2016.0
41.31	2008.0
41.32	2038.0
41.33	2033.0
41.34	1961.0
41.35	1974.0
41.36	2002.0
41.37	2001.0
41.38	2000.0
41.39	1995.0
41.4	2003.0
41.41	2025.0
41.42	2000.0
41.43	1955.0
41.44	2005.0
41.45	2041.0
41.46	1987.0
41.47	1948.0
41.48	2015.0
41.49	2023.0
41.5	1957.0
41.51	1886.0
41.52	1913.0
41.53	1930.0
41.54	1905.0
41.55	1904.0
41.56	1975.0
41.57	1999.0
41.58	1939.0
41.59	1926.0
41.6	1976.0
41.61	1957.0
41.62	1943.0
41.63	1927.0
41.64	2002.0
41.65	1921.0
41.66	1900.0
41.67	1927.0
41.68	1932.0
41.69	1924.0
41.7	1921.0
41.71	1964.0
41.72	1972.0
41.73	1973.0
41.74	1936.0
41.75	1954.0
41.76	1895.0
41.77	1904.0
41.78	1934.0
41.79	1913.0
41.8	1925.0
41.81	1898.0
41.82	1873.0
41.83	1928.0
41.84	1926.0
41.85	1902.0
41.86	1934.0
41.87	1901.0
41.88	1879.0
41.89	1979.0
41.9	1957.0
41.91	1897.0
41.92	1945.0
41.93	1914.0
41.94	1904.0
41.95	1923.0
41.96	1881.0
41.97	1952.0
41.98	1919.0
41.99	1915.0
42.0	1931.0
42.01	1941.0
42.02	1914.0
42.03	1940.0
42.04	1942.0
42.05	1980.0
42.06	1946.0
42.07	1911.0
42.08	1971.0
42.09	1982.0
42.1	1951.0
42.11	1983.0
42.12	1977.0
42.13	1987.0
42.14	1933.0
42.15	1980.0
42.16	1966.0
42.17	2009.0
42.18	1981.0
42.19	1997.0
42.2	1977.0
42.21	2003.0
42.22	1992.0
42.23	2005.0
42.24	1999.0
42.25	1988.0
42.26	1974.0
42.27	2020.0
42.28	2036.0
42.29	2052.0
42.3	2070.0
42.31	2096.0
42.32	2055.0
42.33	2039.0
42.34	2115.0
42.35	2151.0
42.36	2147.0
42.37	2201.0
42.38	2176.0
42.39	2138.0
42.4	2187.0
42.41	2224.0
42.42	2240.0
42.43	2197.0
42.44	2229.0
42.45	2223.0
42.46	2220.0
42.47	2289.0
42.48	2305.0
42.49	2286.0
42.5	2337.0
42.51	2303.0
42.52	2355.0
42.53	2367.0
42.54	2362.0
42.55	2377.0
42.56	2409.0
42.57	2474.0
42.58	2475.0
42.59	2547.0
42.6	2583.0
42.61	2541.0
42.62	2574.0
42.63	2581.0
42.64	2620.0
42.65	2623.0
42.66	2662.0
42.67	2677.0
42.68	2689.0
42.69	2773.0
42.7	2800.0
42.71	2806.0
42.72	2784.0
42.73	2747.0
42.74	2818.0
42.75	2909.0
42.76	2930.0
42.77	2899.0
42.78	2827.0
42.79	2882.0
42.8	2906.0
42.81	2933.0
42.82	2876.0
42.83	2923.0
42.84	2933.0
42.85	2891.0
42.86	2803.0
42.87	2837.0
42.88	2852.0
42.89	2755.0
42.9	2727.0
42.91	2705.0
42.92	2695.0
42.93	2704.0
42.94	2718.0
42.95	2642.0
42.96	2635.0
42.97	2649.0
42.98	2620.0
42.99	2575.0
43.0	2484.0
43.01	2476.0
43.02	2433.0
43.03	2404.0
43.04	2415.0
43.05	2402.0
43.06	2372.0
43.07	2358.0
43.08	2333.0
43.09	2241.0
43.1	2260.0
43.11	2315.0
43.12	2319.0
43.13	2232.0
43.14	2254.0
43.15	2252.0
43.16	2169.0
43.17	2156.0
43.18	2161.0
43.19	2157.0
43.2	2156.0
43.21	2097.0
43.22	2111.0
43.23	2120.0
43.24	2142.0
43.25	2130.0
43.26	2098.0
43.27	2096.0
43.28	2103.0
43.29	2098.0
43.3	2051.0
43.31	2041.0
43.32	2032.0
43.33	2033.0
43.34	2054.0
43.35	2061.0
43.36	1973.0
43.37	2025.0
43.38	1959.0
43.39	1940.0
43.4	2005.0
43.41	1976.0
43.42	2023.0
43.43	1926.0
43.44	1930.0
43.45	1947.0
43.46	1908.0
43.47	1896.0
43.48	1895.0
43.49	1867.0
43.5	1857.0
43.51	1923.0
43.52	1970.0
43.53	1895.0
43.54	1901.0
43.55	1884.0
43.56	1891.0
43.57	1904.0
43.58	1887.0
43.59	1910.0
43.6	1945.0
43.61	1911.0
43.62	1909.0
43.63	1921.0
43.64	1951.0
43.65	1924.0
43.66	1894.0
43.67	1911.0
43.68	1908.0
43.69	1920.0
43.7	1873.0
43.71	1869.0
43.72	1867.0
43.73	1847.0
43.74	1867.0
43.75	1876.0
43.76	1845.0
43.77	1862.0
43.78	1912.0
43.79	1889.0
43.8	1861.0
43.81	1852.0
43.82	1821.0
43.83	1881.0
43.84	1912.0
43.85	1880.0
43.86	1902.0
43.87	1880.0
43.88	1851.0
43.89	1878.0
43.9	1881.0
43.91	1831.0
43.92	1844.0
43.93	1845.0
43.94	1836.0
43.95	1847.0
43.96	1836.0
43.97	1813.0
43.98	1826.0
43.99	1830.0
44.0	1827.0
44.01	1797.0
44.02	1856.0
44.03	1917.0
44.04	1901.0
44.05	1842.0
44.06	1853.0
44.07	1848.0
44.08	1784.0
44.09	1766.0
44.1	1817.0
44.11	1835.0
44.12	1819.0
44.13	1798.0
44.14	1822.0
44.15	1858.0
44.16	1851.0
44.17	1810.0
44.18	1815.0
44.19	1862.0
44.2	1846.0
44.21	1879.0
44.22	1892.0
44.23	1896.0
44.24	1861.0
44.25	1871.0
44.26	1888.0
44.27	1908.0
44.28	1886.0
44.29	1860.0
44.3	1843.0
44.31	1873.0
44.32	1858.0
44.33	1835.0
44.34	1864.0
44.35	1845.0
44.36	1839.0
44.37	1864.0
44.38	1850.0
44.39	1824.0
44.4	1812.0
44.41	1761.0
44.42	1795.0
44.43	1812.0
44.44	1816.0
44.45	1788.0
44.46	1784.0
44.47	1836.0
44.48	1863.0
44.49	1855.0
44.5	1832.0
44.51	1878.0
44.52	1886.0
44.53	1820.0
44.54	1811.0
44.55	1843.0
44.56	1849.0
44.57	1847.0
44.58	1855.0
44.59	1865.0
44.6	1881.0
44.61	1859.0
44.62	1809.0
44.63	1783.0
44.64	1826.0
44.65	1849.0
44.66	1871.0
44.67	1886.0
44.68	1880.0
44.69	1868.0
44.7	1814.0
44.71	1853.0
44.72	1854.0
44.73	1836.0
44.74	1848.0
44.75	1867.0
44.76	1869.0
44.77	1890.0
44.78	1892.0
44.79	1845.0
44.8	1826.0
44.81	1850.0
44.82	1864.0
44.83	1849.0
44.84	1843.0
44.85	1856.0
44.86	1875.0
44.87	1874.0
44.88	1865.0
44.89	1867.0
44.9	1858.0
44.91	1875.0
44.92	1860.0
44.93	1844.0
44.94	1851.0
44.95	1853.0
44.96	1868.0
44.97	1874.0
44.98	1916.0
44.99	1875.0
45.0	1839.0
45.01	1870.0
45.02	1904.0
45.03	1855.0
45.04	1826.0
45.05	1883.0
45.06	1947.0
45.07	1956.0
45.08	1922.0
45.09	1863.0
45.1	1869.0
45.11	1862.0
45.12	1927.0
45.13	1965.0
45.14	1932.0
45.15	1941.0
45.16	1954.0
45.17	1888.0
45.18	1869.0
45.19	1885.0
45.2	1903.0
45.21	1905.0
45.22	1903.0
45.23	1891.0
45.24	1888.0
45.25	1886.0
45.26	1910.0
45.27	1942.0
45.28	1899.0
45.29	1880.0
45.3	1860.0
45.31	1896.0
45.32	1928.0
45.33	1903.0
45.34	1895.0
45.35	1870.0
45.36	1901.0
45.37	1908.0
45.38	1900.0
45.39	1913.0
45.4	1920.0
45.41	1929.0
45.42	1924.0
45.43	1933.0
45.44	1939.0
45.45	1946.0
45.46	1948.0
45.47	1921.0
45.48	1935.0
45.49	1945.0
45.5	1912.0
45.51	1956.0
45.52	1929.0
45.53	1944.0
45.54	1955.0
45.55	1962.0
45.56	1954.0
45.57	1936.0
45.58	1950.0
45.59	1938.0
45.6	1932.0
45.61	1914.0
45.62	1889.0
45.63	1936.0
45.64	1959.0
45.65	1980.0
45.66	1999.0
45.67	1999.0
45.68	2019.0
45.69	2029.0
45.7	2011.0
45.71	1985.0
45.72	1969.0
45.73	1965.0
45.74	2032.0
45.75	2007.0
45.76	1971.0
45.77	2045.0
45.78	2051.0
45.79	2073.0
45.8	2082.0
45.81	2050.0
45.82	2011.0
45.83	1987.0
45.84	1997.0
45.85	2020.0
45.86	2038.0
45.87	2006.0
45.88	2024.0
45.89	2044.0
45.9	2075.0
45.91	2068.0
45.92	2057.0
45.93	2057.0
45.94	2049.0
45.95	2067.0
45.96	2066.0
45.97	2037.0
45.98	2050.0
45.99	2093.0
46.0	2048.0
46.01	2076.0
46.02	2092.0
46.03	2080.0
46.04	2095.0
46.05	2076.0
46.06	2037.0
46.07	2040.0
46.08	2046.0
46.09	2041.0
46.1	2025.0
46.11	2045.0
46.12	2028.0
46.13	2011.0
46.14	2032.0
46.15	2058.0
46.16	2043.0
46.17	2025.0
46.18	2016.0
46.19	2036.0
46.2	2019.0
46.21	2040.0
46.22	2086.0
46.23	2115.0
46.24	2096.0
46.25	2042.0
46.26	2035.0
46.27	2010.0
46.28	1949.0
46.29	1941.0
46.3	1939.0
46.31	1949.0
46.32	1957.0
46.33	1945.0
46.34	1919.0
46.35	1941.0
46.36	1990.0
46.37	1994.0
46.38	1977.0
46.39	1943.0
46.4	1918.0
46.41	1930.0
46.42	1925.0
46.43	1899.0
46.44	1902.0
46.45	1934.0
46.46	1928.0
46.47	1922.0
46.48	1980.0
46.49	1968.0
46.5	1933.0
46.51	1920.0
46.52	1886.0
46.53	1893.0
46.54	1896.0
46.55	1912.0
46.56	1889.0
46.57	1883.0
46.58	1859.0
46.59	1886.0
46.6	1876.0
46.61	1855.0
46.62	1895.0
46.63	1884.0
46.64	1860.0
46.65	1887.0
46.66	1908.0
46.67	1917.0
46.68	1899.0
46.69	1905.0
46.7	1891.0
46.71	1863.0
46.72	1860.0
46.73	1849.0
46.74	1850.0
46.75	1816.0
46.76	1833.0
46.77	1860.0
46.78	1839.0
46.79	1884.0
46.8	1859.0
46.81	1810.0
46.82	1851.0
46.83	1865.0
46.84	1836.0
46.85	1842.0
46.86	1866.0
46.87	1861.0
46.88	1864.0
46.89	1870.0
46.9	1814.0
46.91	1778.0
46.92	1816.0
46.93	1838.0
46.94	1828.0
46.95	1826.0
46.96	1847.0
46.97	1861.0
46.98	1824.0
46.99	1822.0
47.0	1825.0
47.01	1819.0
47.02	1846.0
47.03	1878.0
47.04	1835.0
47.05	1801.0
47.06	1842.0
47.07	1857.0
47.08	1840.0
47.09	1830.0
47.1	1828.0
47.11	1833.0
47.12	1825.0
47.13	1804.0
47.14	1789.0
47.15	1792.0
47.16	1811.0
47.17	1820.0
47.18	1820.0
47.19	1815.0
47.2	1809.0
47.21	1842.0
47.22	1835.0
47.23	1799.0
47.24	1791.0
47.25	1820.0
47.26	1814.0
47.27	1795.0
47.28	1820.0
47.29	1814.0
47.3	1822.0
47.31	1827.0
47.32	1821.0
47.33	1825.0
47.34	1841.0
47.35	1842.0
47.36	1835.0
47.37	1810.0
47.38	1799.0
47.39	1803.0
47.4	1836.0
47.41	1830.0
47.42	1804.0
47.43	1802.0
47.44	1775.0
47.45	1782.0
47.46	1817.0
47.47	1830.0
47.48	1833.0
47.49	1803.0
47.5	1812.0
47.51	1859.0
47.52	1860.0
47.53	1834.0
47.54	1810.0
47.55	1798.0
47.56	1787.0
47.57	1786.0
47.58	1767.0
47.59	1751.0
47.6	1758.0
47.61	1792.0
47.62	1800.0
47.63	1799.0
47.64	1811.0
47.65	1826.0
47.66	1823.0
47.67	1812.0
47.68	1810.0
47.69	1818.0
47.7	1821.0
47.71	1813.0
47.72	1836.0
47.73	1856.0
47.74	1842.0
47.75	1823.0
47.76	1850.0
47.77	1826.0
47.78	1809.0
47.79	1827.0
47.8	1789.0
47.81	1744.0
47.82	1735.0
47.83	1778.0
47.84	1799.0
47.85	1816.0
47.86	1805.0
47.87	1786.0
47.88	1821.0
47.89	1827.0
47.9	1786.0
47.91	1785.0
47.92	1817.0
47.93	1853.0
47.94	1849.0
47.95	1814.0
47.96	1834.0
47.97	1853.0
47.98	1826.0
47.99	1805.0
48.0	1804.0
48.01	1806.0
48.02	1840.0
48.03	1866.0
48.04	1834.0
48.05	1798.0
48.06	1776.0
48.07	1792.0
48.08	1826.0
48.09	1804.0
48.1	1775.0
48.11	1778.0
48.12	1776.0
48.13	1783.0
48.14	1792.0
48.15	1783.0
48.16	1791.0
48.17	1842.0
48.18	1849.0
48.19	1837.0
48.2	1832.0
48.21	1814.0
48.22	1816.0
48.23	1813.0
48.24	1810.0
48.25	1800.0
48.26	1812.0
48.27	1809.0
48.28	1840.0
48.29	1852.0
48.3	1830.0
48.31	1819.0
48.32	1824.0
48.33	1832.0
48.34	1836.0
48.35	1819.0
48.36	1810.0
48.37	1808.0
48.38	1837.0
48.39	1821.0
48.4	1781.0
48.41	1816.0
48.42	1847.0
48.43	1811.0
48.44	1796.0
48.45	1817.0
48.46	1779.0
48.47	1769.0
48.48	1806.0
48.49	1809.0
48.5	1832.0
48.51	1865.0
48.52	1858.0
48.53	1833.0
48.54	1824.0
48.55	1800.0
48.56	1799.0
48.57	1835.0
48.58	1829.0
48.59	1807.0
48.6	1800.0
48.61	1788.0
48.62	1830.0
48.63	1881.0
48.64	1855.0
48.65	1820.0
48.66	1865.0
48.67	1857.0
48.68	1828.0
48.69	1876.0
48.7	1863.0
48.71	1807.0
48.72	1813.0
48.73	1856.0
48.74	1848.0
48.75	1818.0
48.76	1814.0
48.77	1808.0
48.78	1781.0
48.79	1776.0
48.8	1778.0
48.81	1779.0
48.82	1821.0
48.83	1847.0
48.84	1824.0
48.85	1802.0
48.86	1817.0
48.87	1824.0
48.88	1837.0
48.89	1830.0
48.9	1812.0
48.91	1817.0
48.92	1828.0
48.93	1821.0
48.94	1843.0
48.95	1836.0
48.96	1838.0
48.97	1859.0
48.98	1829.0
48.99	1791.0
49.0	1795.0
49.01	1822.0
49.02	1832.0
49.03	1845.0
49.04	1846.0
49.05	1832.0
49.06	1833.0
49.07	1861.0
49.08	1896.0
49.09	1882.0
49.1	1867.0
49.11	1838.0
49.12	1800.0
49.13	1799.0
49.14	1774.0
49.15	1783.0
49.16	1806.0
49.17	1851.0
49.18	1900.0
49.19	1873.0
49.2	1861.0
49.21	1854.0
49.22	1839.0
49.23	1854.0
49.24	1874.0
49.25	1851.0
49.26	1824.0
49.27	1838.0
49.28	1845.0
49.29	1871.0
49.3	1898.0
49.31	1881.0
49.32	1849.0
49.33	1855.0
49.34	1855.0
49.35	1835.0
49.36	1855.0
49.37	1899.0
49.38	1887.0
49.39	1828.0
49.4	1824.0
49.41	1865.0
49.42	1886.0
49.43	1857.0
49.44	1844.0
49.45	1855.0
49.46	1859.0
49.47	1853.0
49.48	1844.0
49.49	1844.0
49.5	1857.0
49.51	1863.0
49.52	1874.0
49.53	1850.0
49.54	1819.0
49.55	1801.0
49.56	1821.0
49.57	1834.0
49.58	1843.0
49.59	1873.0
49.6	1880.0
49.61	1883.0
49.62	1875.0
49.63	1864.0
49.64	1836.0
49.65	1803.0
49.66	1803.0
49.67	1833.0
49.68	1843.0
49.69	1840.0
49.7	1864.0
49.71	1871.0
49.72	1861.0
49.73	1856.0
49.74	1853.0
49.75	1845.0
49.76	1835.0
49.77	1826.0
49.78	1846.0
49.79	1851.0
49.8	1825.0
49.81	1804.0
49.82	1808.0
49.83	1836.0
49.84	1831.0
49.85	1818.0
49.86	1821.0
49.87	1846.0
49.88	1864.0
49.89	1867.0
49.9	1846.0
49.91	1836.0
49.92	1852.0
49.93	1838.0
49.94	1857.0
49.95	1871.0
49.96	1828.0
49.97	1844.0
49.98	1883.0
49.99	1875.0
50.0	1866.0
50.01	1848.0
50.02	1849.0
50.03	1848.0
50.04	1833.0
50.05	1863.0
50.06	1873.0
50.07	1831.0
50.08	1806.0
50.09	1805.0
50.1	1806.0
50.11	1830.0
50.12	1858.0
50.13	1891.0
50.14	1901.0
50.15	1899.0
50.16	1889.0
50.17	1888.0
50.18	1885.0
50.19	1843.0
50.2	1821.0
50.21	1838.0
50.22	1846.0
50.23	1834.0
50.24	1833.0
50.25	1850.0
50.26	1873.0
50.27	1878.0
50.28	1860.0
50.29	1851.0
50.3	1880.0
50.31	1900.0
50.32	1868.0
50.33	1851.0
50.34	1838.0
50.35	1824.0
50.36	1835.0
50.37	1823.0
50.38	1836.0
50.39	1845.0
50.4	1842.0
50.41	1849.0
50.42	1842.0
50.43	1848.0
50.44	1855.0
50.45	1853.0
50.46	1843.0
50.47	1850.0
50.48	1837.0
50.49	1817.0
50.5	1843.0
50.51	1856.0
50.52	1850.0
50.53	1865.0
50.54	1893.0
50.55	1902.0
50.56	1877.0
50.57	1848.0
50.58	1851.0
50.59	1883.0
50.6	1877.0
50.61	1843.0
50.62	1830.0
50.63	1824.0
50.64	1851.0
50.65	1841.0
50.66	1806.0
50.67	1838.0
50.68	1856.0
50.69	1839.0
50.7	1848.0
50.71	1875.0
50.72	1874.0
50.73	1849.0
50.74	1839.0
50.75	1831.0
50.76	1801.0
50.77	1816.0
50.78	1857.0
50.79	1843.0
50.8	1839.0
50.81	1832.0
50.82	1836.0
50.83	1862.0
50.84	1834.0
50.85	1827.0
50.86	1837.0
50.87	1822.0
50.88	1832.0
50.89	1846.0
50.9	1858.0
50.91	1866.0
50.92	1842.0
50.93	1833.0
50.94	1840.0
50.95	1854.0
50.96	1863.0
50.97	1875.0
50.98	1865.0
50.99	1833.0
51.0	1814.0
51.01	1813.0
51.02	1846.0
51.03	1852.0
51.04	1831.0
51.05	1820.0
51.06	1842.0
51.07	1840.0
51.08	1816.0
51.09	1833.0
51.1	1836.0
51.11	1819.0
51.12	1812.0
51.13	1814.0
51.14	1810.0
51.15	1807.0
51.16	1803.0
51.17	1790.0
51.18	1798.0
51.19	1828.0
51.2	1832.0
51.21	1830.0
51.22	1829.0
51.23	1844.0
51.24	1877.0
51.25	1874.0
51.26	1866.0
51.27	1842.0
51.28	1838.0
51.29	1842.0
51.3	1836.0
51.31	1860.0
51.32	1878.0
51.33	1848.0
51.34	1801.0
51.35	1799.0
51.36	1813.0
51.37	1838.0
51.38	1885.0
51.39	1880.0
51.4	1819.0
51.41	1796.0
51.42	1832.0
51.43	1834.0
51.44	1821.0
51.45	1820.0
51.46	1828.0
51.47	1875.0
51.48	1880.0
51.49	1843.0
51.5	1858.0
51.51	1890.0
51.52	1870.0
51.53	1837.0
51.54	1826.0
51.55	1843.0
51.56	1858.0
51.57	1849.0
51.58	1842.0
51.59	1819.0
51.6	1805.0
51.61	1801.0
51.62	1791.0
51.63	1790.0
51.64	1793.0
51.65	1804.0
51.66	1834.0
51.67	1851.0
51.68	1861.0
51.69	1866.0
51.7	1853.0
51.71	1844.0
51.72	1856.0
51.73	1882.0
51.74	1855.0
51.75	1803.0
51.76	1779.0
51.77	1808.0
51.78	1838.0
51.79	1851.0
51.8	1872.0
51.81	1847.0
51.82	1817.0
51.83	1819.0
51.84	1841.0
51.85	1846.0
51.86	1815.0
51.87	1802.0
51.88	1828.0
51.89	1841.0
51.9	1813.0
51.91	1811.0
51.92	1819.0
51.93	1780.0
51.94	1782.0
51.95	1821.0
51.96	1816.0
51.97	1773.0
51.98	1793.0
51.99	1845.0
52.0	1845.0
52.01	1826.0
52.02	1827.0
52.03	1831.0
52.04	1823.0
52.05	1796.0
52.06	1803.0
52.07	1841.0
52.08	1847.0
52.09	1856.0
52.1	1860.0
52.11	1855.0
52.12	1841.0
52.13	1833.0
52.14	1849.0
52.15	1869.0
52.16	1857.0
52.17	1869.0
52.18	1850.0
52.19	1800.0
52.2	1785.0
52.21	1795.0
52.22	1819.0
52.23	1811.0
52.24	1793.0
52.25	1830.0
52.26	1868.0
52.27	1863.0
52.28	1864.0
52.29	1854.0
52.3	1819.0
52.31	1834.0
52.32	1857.0
52.33	1885.0
52.34	1913.0
52.35	1874.0
52.36	1823.0
52.37	1805.0
52.38	1799.0
52.39	1806.0
52.4	1797.0
52.41	1794.0
52.42	1833.0
52.43	1844.0
52.44	1805.0
52.45	1805.0
52.46	1837.0
52.47	1881.0
52.48	1885.0
52.49	1842.0
52.5	1806.0
52.51	1819.0
52.52	1832.0
52.53	1830.0
52.54	1846.0
52.55	1866.0
52.56	1833.0
52.57	1845.0
52.58	1864.0
52.59	1819.0
52.6	1819.0
52.61	1872.0
52.62	1914.0
52.63	1911.0
52.64	1887.0
52.65	1877.0
52.66	1868.0
52.67	1857.0
52.68	1862.0
52.69	1849.0
52.7	1837.0
52.71	1844.0
52.72	1856.0
52.73	1859.0
52.74	1855.0
52.75	1858.0
52.76	1850.0
52.77	1866.0
52.78	1864.0
52.79	1860.0
52.8	1869.0
52.81	1895.0
52.82	1876.0
52.83	1857.0
52.84	1889.0
52.85	1912.0
52.86	1888.0
52.87	1859.0
52.88	1856.0
52.89	1852.0
52.9	1840.0
52.91	1871.0
52.92	1872.0
52.93	1848.0
52.94	1858.0
52.95	1870.0
52.96	1877.0
52.97	1894.0
52.98	1881.0
52.99	1874.0
53.0	1835.0
53.01	1818.0
53.02	1816.0
53.03	1848.0
53.04	1850.0
53.05	1808.0
53.06	1829.0
53.07	1867.0
53.08	1847.0
53.09	1829.0
53.1	1849.0
53.11	1837.0
53.12	1816.0
53.13	1862.0
53.14	1905.0
53.15	1874.0
53.16	1866.0
53.17	1863.0
53.18	1885.0
53.19	1911.0
53.2	1887.0
53.21	1848.0
53.22	1842.0
53.23	1871.0
53.24	1887.0
53.25	1893.0
53.26	1892.0
53.27	1886.0
53.28	1858.0
53.29	1867.0
53.3	1898.0
53.31	1906.0
53.32	1887.0
53.33	1853.0
53.34	1856.0
53.35	1882.0
53.36	1880.0
53.37	1873.0
53.38	1833.0
53.39	1810.0
53.4	1820.0
53.41	1841.0
53.42	1859.0
53.43	1893.0
53.44	1908.0
53.45	1892.0
53.46	1880.0
53.47	1880.0
53.48	1887.0
53.49	1904.0
53.5	1877.0
53.51	1804.0
53.52	1811.0
53.53	1862.0
53.54	1862.0
53.55	1882.0
53.56	1895.0
53.57	1880.0
53.58	1888.0
53.59	1889.0
53.6	1861.0
53.61	1897.0
53.62	1912.0
53.63	1885.0
53.64	1870.0
53.65	1863.0
53.66	1873.0
53.67	1849.0
53.68	1863.0
53.69	1883.0
53.7	1905.0
53.71	1933.0
53.72	1911.0
53.73	1912.0
53.74	1926.0
53.75	1896.0
53.76	1865.0
53.77	1863.0
53.78	1909.0
53.79	1929.0
53.8	1912.0
53.81	1902.0
53.82	1897.0
53.83	1896.0
53.84	1934.0
53.85	1898.0
53.86	1888.0
53.87	1938.0
53.88	1913.0
53.89	1884.0
53.9	1911.0
53.91	1926.0
53.92	1921.0
53.93	1924.0
53.94	1919.0
53.95	1899.0
53.96	1898.0
53.97	1943.0
53.98	1943.0
53.99	1936.0
54.0	1980.0
54.01	1970.0
54.02	1931.0
54.03	1906.0
54.04	1870.0
54.05	1888.0
54.06	1937.0
54.07	1959.0
54.08	1922.0
54.09	1909.0
54.1	1931.0
54.11	1907.0
54.12	1898.0
54.13	1935.0
54.14	1917.0
54.15	1882.0
54.16	1880.0
54.17	1889.0
54.18	1879.0
54.19	1858.0
54.2	1891.0
54.21	1932.0
54.22	1918.0
54.23	1887.0
54.24	1887.0
54.25	1908.0
54.26	1937.0
54.27	1971.0
54.28	1970.0
54.29	1927.0
54.3	1943.0
54.31	1935.0
54.32	1914.0
54.33	1931.0
54.34	1939.0
54.35	1956.0
54.36	1980.0
54.37	1951.0
54.38	1964.0
54.39	1965.0
54.4	1954.0
54.41	1972.0
54.42	1976.0
54.43	1963.0
54.44	1976.0
54.45	1974.0
54.46	1961.0
54.47	1964.0
54.48	1938.0
54.49	1956.0
54.5	2000.0
54.51	2027.0
54.52	2031.0
54.53	2008.0
54.54	1994.0
54.55	1982.0
54.56	1952.0
54.57	1931.0
54.58	1955.0
54.59	1998.0
54.6	2000.0
54.61	1954.0
54.62	1971.0
54.63	1993.0
54.64	2020.0
54.65	2024.0
54.66	2022.0
54.67	1974.0
54.68	1984.0
54.69	1972.0
54.7	1966.0
54.71	2023.0
54.72	2068.0
54.73	2040.0
54.74	2003.0
54.75	1966.0
54.76	1971.0
54.77	2039.0
54.78	2061.0
54.79	2066.0
54.8	2050.0
54.81	2030.0
54.82	2032.0
54.83	2082.0
54.84	2088.0
54.85	2072.0
54.86	2075.0
54.87	2057.0
54.88	2047.0
54.89	2039.0
54.9	2023.0
54.91	2034.0
54.92	2045.0
54.93	2078.0
54.94	2095.0
54.95	2079.0
54.96	2092.0
54.97	2112.0
54.98	2079.0
54.99	2047.0
55.0	2054.0
55.01	2107.0
55.02	2129.0
55.03	2096.0
55.04	2044.0
55.05	2107.0
55.06	2133.0
55.07	2133.0
55.08	2144.0
55.09	2097.0
55.1	2126.0
55.11	2152.0
55.12	2112.0
55.13	2135.0
55.14	2107.0
55.15	2097.0
55.16	2118.0
55.17	2141.0
55.18	2162.0
55.19	2161.0
55.2	2146.0
55.21	2158.0
55.22	2174.0
55.23	2159.0
55.24	2154.0
55.25	2171.0
55.26	2156.0
55.27	2157.0
55.28	2157.0
55.29	2153.0
55.3	2160.0
55.31	2148.0
55.32	2141.0
55.33	2142.0
55.34	2199.0
55.35	2213.0
55.36	2194.0
55.37	2201.0
55.38	2196.0
55.39	2210.0
55.4	2209.0
55.41	2171.0
55.42	2191.0
55.43	2220.0
55.44	2231.0
55.45	2228.0
55.46	2228.0
55.47	2235.0
55.48	2210.0
55.49	2234.0
55.5	2242.0
55.51	2204.0
55.52	2204.0
55.53	2216.0
55.54	2246.0
55.55	2272.0
55.56	2310.0
55.57	2278.0
55.58	2248.0
55.59	2265.0
55.6	2269.0
55.61	2262.0
55.62	2302.0
55.63	2306.0
55.64	2306.0
55.65	2292.0
55.66	2291.0
55.67	2355.0
55.68	2387.0
55.69	2343.0
55.7	2341.0
55.71	2341.0
55.72	2340.0
55.73	2422.0
55.74	2461.0
55.75	2452.0
55.76	2403.0
55.77	2412.0
55.78	2408.0
55.79	2393.0
55.8	2410.0
55.81	2439.0
55.82	2418.0
55.83	2429.0
55.84	2459.0
55.85	2471.0
55.86	2494.0
55.87	2504.0
55.88	2536.0
55.89	2564.0
55.9	2631.0
55.91	2650.0
55.92	2604.0
55.93	2578.0
55.94	2598.0
55.95	2638.0
55.96	2670.0
55.97	2641.0
55.98	2633.0
55.99	2671.0
56.0	2682.0
56.01	2705.0
56.02	2729.0
56.03	2713.0
56.04	2759.0
56.05	2847.0
56.06	2848.0
56.07	2845.0
56.08	2892.0
56.09	2936.0
56.1	2952.0
56.11	2960.0
56.12	2975.0
56.13	3040.0
56.14	3095.0
56.15	3086.0
56.16	3105.0
56.17	3158.0
56.18	3188.0
56.19	3214.0
56.2	3255.0
56.21	3258.0
56.22	3277.0
56.23	3355.0
56.24	3434.0
56.25	3475.0
56.26	3445.0
56.27	3437.0
56.28	3524.0
56.29	3596.0
56.3	3584.0
56.31	3645.0
56.32	3719.0
56.33	3710.0
56.34	3730.0
56.35	3810.0
56.36	3876.0
56.37	3920.0
56.38	3978.0
56.39	4037.0
56.4	4084.0
56.41	4095.0
56.42	4086.0
56.43	4136.0
56.44	4225.0
56.45	4276.0
56.46	4294.0
56.47	4290.0
56.48	4377.0
56.49	4402.0
56.5	4373.0
56.51	4367.0
56.52	4474.0
56.53	4553.0
56.54	4586.0
56.55	4620.0
56.56	4630.0
56.57	4638.0
56.58	4709.0
56.59	4670.0
56.6	4693.0
56.61	4737.0
56.62	4775.0
56.63	4769.0
56.64	4755.0
56.65	4725.0
56.66	4794.0
56.67	4813.0
56.68	4801.0
56.69	4746.0
56.7	4674.0
56.71	4666.0
56.72	4710.0
56.73	4734.0
56.74	4741.0
56.75	4693.0
56.76	4595.0
56.77	4628.0
56.78	4605.0
56.79	4525.0
56.8	4515.0
56.81	4507.0
56.82	4507.0
56.83	4477.0
56.84	4370.0
56.85	4256.0
56.86	4257.0
56.87	4292.0
56.88	4225.0
56.89	4131.0
56.9	4136.0
56.91	4118.0
56.92	4084.0
56.93	4037.0
56.94	3949.0
56.95	3909.0
56.96	3842.0
56.97	3871.0
56.98	3859.0
56.99	3737.0
57.0	3709.0
57.01	3691.0
57.02	3622.0
57.03	3618.0
57.04	3612.0
57.05	3540.0
57.06	3481.0
57.07	3468.0
57.08	3466.0
57.09	3407.0
57.1	3368.0
57.11	3319.0
57.12	3301.0
57.13	3315.0
57.14	3243.0
57.15	3210.0
57.16	3196.0
57.17	3135.0
57.18	3028.0
57.19	3014.0
57.2	3007.0
57.21	3011.0
57.22	3009.0
57.23	2992.0
57.24	2955.0
57.25	2923.0
57.26	2957.0
57.27	2940.0
57.28	2880.0
57.29	2886.0
57.3	2885.0
57.31	2813.0
57.32	2779.0
57.33	2792.0
57.34	2810.0
57.35	2777.0
57.36	2694.0
57.37	2679.0
57.38	2676.0
57.39	2664.0
57.4	2586.0
57.41	2544.0
57.42	2599.0
57.43	2585.0
57.44	2579.0
57.45	2573.0
57.46	2559.0
57.47	2542.0
57.48	2505.0
57.49	2501.0
57.5	2492.0
57.51	2462.0
57.52	2458.0
57.53	2429.0
57.54	2451.0
57.55	2459.0
57.56	2465.0
57.57	2415.0
57.58	2400.0
57.59	2395.0
57.6	2361.0
57.61	2381.0
57.62	2338.0
57.63	2358.0
57.64	2374.0
57.65	2367.0
57.66	2364.0
57.67	2347.0
57.68	2357.0
57.69	2362.0
57.7	2323.0
57.71	2346.0
57.72	2354.0
57.73	2302.0
57.74	2270.0
57.75	2300.0
57.76	2288.0
57.77	2270.0
57.78	2275.0
57.79	2308.0
57.8	2334.0
57.81	2284.0
57.82	2242.0
57.83	2238.0
57.84	2251.0
57.85	2238.0
57.86	2218.0
57.87	2212.0
57.88	2224.0
57.89	2214.0
57.9	2203.0
57.91	2194.0
57.92	2197.0
57.93	2192.0
57.94	2207.0
57.95	2204.0
57.96	2215.0
57.97	2200.0
57.98	2178.0
57.99	2188.0
58.0	2178.0
58.01	2172.0
58.02	2181.0
58.03	2163.0
58.04	2154.0
58.05	2145.0
58.06	2124.0
58.07	2126.0
58.08	2113.0
58.09	2131.0
58.1	2101.0
58.11	2144.0
58.12	2185.0
58.13	2165.0
58.14	2165.0
58.15	2206.0
58.16	2199.0
58.17	2151.0
58.18	2134.0
58.19	2140.0
58.2	2091.0
58.21	2076.0
58.22	2102.0
58.23	2130.0
58.24	2157.0
58.25	2113.0
58.26	2076.0
58.27	2063.0
58.28	2050.0
58.29	2068.0
58.3	2121.0
58.31	2141.0
58.32	2109.0
58.33	2101.0
58.34	2093.0
58.35	2090.0
58.36	2101.0
58.37	2148.0
58.38	2152.0
58.39	2116.0
58.4	2127.0
58.41	2131.0
58.42	2160.0
58.43	2160.0
58.44	2155.0
58.45	2132.0
58.46	2108.0
58.47	2160.0
58.48	2132.0
58.49	2131.0
58.5	2097.0
58.51	2126.0
58.52	2115.0
58.53	2086.0
58.54	2134.0
58.55	2169.0
58.56	2141.0
58.57	2152.0
58.58	2148.0
58.59	2125.0
58.6	2136.0
58.61	2168.0
58.62	2171.0
58.63	2159.0
58.64	2180.0
58.65	2176.0
58.66	2195.0
58.67	2187.0
58.68	2119.0
58.69	2158.0
58.7	2186.0
58.71	2163.0
58.72	2160.0
58.73	2212.0
58.74	2207.0
58.75	2225.0
58.76	2228.0
58.77	2237.0
58.78	2258.0
58.79	2251.0
58.8	2236.0
58.81	2200.0
58.82	2215.0
58.83	2187.0
58.84	2168.0
58.85	2223.0
58.86	2256.0
58.87	2311.0
58.88	2263.0
58.89	2295.0
58.9	2308.0
58.91	2280.0
58.92	2283.0
58.93	2311.0
58.94	2353.0
58.95	2333.0
58.96	2344.0
58.97	2350.0
58.98	2379.0
58.99	2388.0
59.0	2391.0
59.01	2387.0
59.02	2377.0
59.03	2409.0
59.04	2479.0
59.05	2501.0
59.06	2518.0
59.07	2426.0
59.08	2444.0
59.09	2511.0
59.1	2557.0
59.11	2543.0
59.12	2504.0
59.13	2575.0
59.14	2617.0
59.15	2614.0
59.16	2567.0
59.17	2620.0
59.18	2639.0
59.19	2681.0
59.2	2715.0
59.21	2723.0
59.22	2726.0
59.23	2733.0
59.24	2793.0
59.25	2773.0
59.26	2734.0
59.27	2753.0
59.28	2803.0
59.29	2838.0
59.3	2799.0
59.31	2860.0
59.32	2947.0
59.33	2912.0
59.34	2884.0
59.35	2872.0
59.36	2907.0
59.37	2952.0
59.38	2991.0
59.39	2928.0
59.4	2861.0
59.41	2851.0
59.42	2885.0
59.43	2891.0
59.44	2831.0
59.45	2808.0
59.46	2806.0
59.47	2828.0
59.48	2782.0
59.49	2761.0
59.5	2772.0
59.51	2708.0
59.52	2671.0
59.53	2689.0
59.54	2695.0
59.55	2661.0
59.56	2642.0
59.57	2596.0
59.58	2591.0
59.59	2590.0
59.6	2546.0
59.61	2482.0
59.62	2520.0
59.63	2523.0
59.64	2465.0
59.65	2399.0
59.66	2408.0
59.67	2422.0
59.68	2440.0
59.69	2410.0
59.7	2372.0
59.71	2361.0
59.72	2338.0
59.73	2276.0
59.74	2269.0
59.75	2297.0
59.76	2270.0
59.77	2206.0
59.78	2189.0
59.79	2183.0
59.8	2210.0
59.81	2221.0
59.82	2245.0
59.83	2226.0
59.84	2174.0
59.85	2150.0
59.86	2174.0
59.87	2150.0
59.88	2146.0
59.89	2115.0
59.9	2163.0
59.91	2177.0
59.92	2103.0
59.93	2133.0
59.94	2116.0
59.95	2146.0
59.96	2172.0
59.97	2153.0
59.98	2112.0
59.99	2082.0
60.0	2116.0
60.01	2096.0
60.02	2075.0
60.03	2066.0
60.04	2061.0
60.05	2053.0
60.06	2096.0
60.07	2097.0
60.08	2016.0
60.09	2010.0
60.1	2067.0
60.11	2050.0
60.12	2003.0
60.13	2018.0
60.14	2041.0
60.15	2038.0
60.16	2046.0
60.17	2022.0
60.18	2043.0
60.19	2021.0
60.2	1966.0
60.21	1994.0
60.22	1966.0
60.23	2006.0
60.24	2020.0
60.25	2026.0
60.26	2015.0
60.27	1989.0
60.28	2009.0
60.29	2007.0
60.3	1985.0
60.31	1957.0
60.32	1971.0
60.33	2002.0
60.34	1946.0
60.35	1914.0
60.36	1953.0
60.37	1939.0
60.38	1916.0
60.39	1941.0
60.4	1920.0
60.41	1914.0
60.42	1933.0
60.43	1953.0
60.44	1912.0
60.45	1958.0
60.46	1990.0
60.47	1959.0
60.48	1954.0
60.49	1955.0
60.5	1947.0
60.51	1939.0
60.52	1951.0
60.53	1925.0
60.54	1917.0
60.55	1930.0
60.56	1942.0
60.57	1941.0
60.58	1968.0
60.59	1982.0
60.6	1985.0
60.61	1939.0
60.62	1930.0
60.63	1909.0
60.64	1922.0
60.65	1940.0
60.66	1898.0
60.67	1936.0
60.68	1983.0
60.69	1960.0
60.7	1902.0
60.71	1923.0
60.72	1925.0
60.73	1911.0
60.74	1939.0
60.75	1880.0
60.76	1852.0
60.77	1871.0
60.78	1869.0
60.79	1939.0
60.8	1969.0
60.81	1963.0
60.82	1941.0
60.83	1915.0
60.84	1953.0
60.85	1970.0
60.86	1938.0
60.87	1946.0
60.88	1972.0
60.89	1966.0
60.9	1930.0
60.91	1896.0
60.92	1875.0
60.93	1915.0
60.94	1917.0
60.95	1940.0
60.96	1915.0
60.97	1866.0
60.98	1837.0
60.99	1883.0
61.0	1836.0
61.01	1881.0
61.02	1830.0
61.03	1900.0
61.04	1918.0
61.05	1932.0
61.06	1889.0
61.07	1874.0
61.08	1888.0
61.09	1901.0
61.1	1912.0
61.11	1861.0
61.12	1885.0
61.13	1945.0
61.14	1935.0
61.15	1908.0
61.16	1871.0
61.17	1872.0
61.18	1904.0
61.19	1877.0
61.2	1913.0
61.21	1882.0
61.22	1856.0
61.23	1913.0
61.24	1924.0
61.25	1909.0
61.26	1912.0
61.27	1883.0
61.28	1902.0
61.29	1863.0
61.3	1866.0
61.31	1901.0
61.32	1898.0
61.33	1929.0
61.34	1864.0
61.35	1838.0
61.36	1854.0
61.37	1896.0
61.38	1910.0
61.39	1854.0
61.4	1849.0
61.41	1873.0
61.42	1858.0
61.43	1844.0
61.44	1859.0
61.45	1904.0
61.46	1896.0
61.47	1905.0
61.48	1926.0
61.49	1877.0
61.5	1858.0
61.51	1897.0
61.52	1901.0
61.53	1866.0
61.54	1863.0
61.55	1882.0
61.56	1854.0
61.57	1859.0
61.58	1888.0
61.59	1857.0
61.6	1804.0
61.61	1834.0
61.62	1868.0
61.63	1863.0
61.64	1932.0
61.65	1924.0
61.66	1887.0
61.67	1845.0
61.68	1850.0
61.69	1857.0
61.7	1810.0
61.71	1882.0
61.72	1920.0
61.73	1923.0
61.74	1867.0
61.75	1840.0
61.76	1858.0
61.77	1869.0
61.78	1887.0
61.79	1852.0
61.8	1840.0
61.81	1896.0
61.82	1894.0
61.83	1888.0
61.84	1855.0
61.85	1887.0
61.86	1913.0
61.87	1865.0
61.88	1864.0
61.89	1874.0
61.9	1856.0
61.91	1851.0
61.92	1875.0
61.93	1856.0
61.94	1826.0
61.95	1845.0
61.96	1892.0
61.97	1872.0
61.98	1838.0
61.99	1829.0
62.0	1838.0
62.01	1809.0
62.02	1801.0
62.03	1868.0
62.04	1903.0
62.05	1905.0
62.06	1891.0
62.07	1868.0
62.08	1852.0
62.09	1863.0
62.1	1859.0
62.11	1838.0
62.12	1886.0
62.13	1914.0
62.14	1863.0
62.15	1874.0
62.16	1921.0
62.17	1876.0
62.18	1837.0
62.19	1851.0
62.2	1877.0
62.21	1872.0
62.22	1898.0
62.23	1864.0
62.24	1824.0
62.25	1833.0
62.26	1832.0
62.27	1904.0
62.28	1899.0
62.29	1898.0
62.3	1852.0
62.31	1825.0
62.32	1850.0
62.33	1898.0
62.34	1895.0
62.35	1898.0
62.36	1885.0
62.37	1909.0
62.38	1868.0
62.39	1873.0
62.4	1916.0
62.41	1884.0
62.42	1873.0
62.43	1868.0
62.44	1830.0
62.45	1924.0
62.46	1929.0
62.47	1940.0
62.48	1907.0
62.49	1894.0
62.5	1898.0
62.51	1839.0
62.52	1882.0
62.53	1882.0
62.54	1891.0
62.55	1939.0
62.56	1890.0
62.57	1866.0
62.58	1889.0
62.59	1922.0
62.6	1935.0
62.61	1897.0
62.62	1869.0
62.63	1850.0
62.64	1805.0
62.65	1847.0
62.66	1883.0
62.67	1890.0
62.68	1868.0
62.69	1874.0
62.7	1872.0
62.71	1867.0
62.72	1894.0
62.73	1895.0
62.74	1926.0
62.75	1970.0
62.76	1943.0
62.77	1877.0
62.78	1856.0
62.79	1851.0
62.8	1852.0
62.81	1890.0
62.82	1883.0
62.83	1881.0
62.84	1910.0
62.85	1911.0
62.86	1854.0
62.87	1850.0
62.88	1833.0
62.89	1863.0
62.9	1903.0
62.91	1841.0
62.92	1865.0
62.93	1886.0
62.94	1846.0
62.95	1874.0
62.96	1867.0
62.97	1871.0
62.98	1870.0
62.99	1875.0
63.0	1863.0
63.01	1847.0
63.02	1883.0
63.03	1894.0
63.04	1873.0
63.05	1930.0
63.06	1940.0
63.07	1832.0
63.08	1861.0
63.09	1893.0
63.1	1874.0
63.11	1873.0
63.12	1880.0
63.13	1837.0
63.14	1878.0
63.15	1905.0
63.16	1898.0
63.17	1914.0
63.18	1889.0
63.19	1841.0
63.2	1848.0
63.21	1871.0
63.22	1888.0
63.23	1898.0
63.24	1892.0
63.25	1878.0
63.26	1829.0
63.27	1835.0
63.28	1887.0
63.29	1907.0
63.3	1887.0
63.31	1876.0
63.32	1899.0
63.33	1899.0
63.34	1894.0
63.35	1908.0
63.36	1879.0
63.37	1845.0
63.38	1798.0
63.39	1810.0
63.4	1907.0
63.41	1914.0
63.42	1872.0
63.43	1882.0
63.44	1888.0
63.45	1872.0
63.46	1851.0
63.47	1873.0
63.48	1885.0
63.49	1914.0
63.5	1882.0
63.51	1857.0
63.52	1884.0
63.53	1896.0
63.54	1909.0
63.55	1864.0
63.56	1851.0
63.57	1852.0
63.58	1915.0
63.59	1848.0
63.6	1898.0
63.61	1905.0
63.62	1912.0
63.63	1895.0
63.64	1919.0
63.65	1889.0
63.66	1890.0
63.67	1912.0
63.68	1857.0
63.69	1893.0
63.7	1922.0
63.71	1841.0
63.72	1826.0
63.73	1893.0
63.74	1954.0
63.75	1897.0
63.76	1951.0
63.77	1906.0
63.78	1900.0
63.79	1912.0
63.8	1870.0
63.81	1924.0
63.82	1930.0
63.83	1894.0
63.84	1895.0
63.85	1856.0
63.86	1853.0
63.87	1904.0
63.88	1951.0
63.89	1978.0
63.9	1958.0
63.91	1889.0
63.92	1891.0
63.93	1928.0
63.94	1949.0
63.95	1948.0
63.96	1880.0
63.97	1876.0
63.98	1886.0
63.99	1964.0
64.0	1937.0
64.01	1895.0
64.02	1889.0
64.03	1921.0
64.04	1942.0
64.05	1929.0
64.06	1950.0
64.07	1947.0
64.08	1934.0
64.09	1918.0
64.1	1952.0
64.11	1991.0
64.12	1991.0
64.13	1957.0
64.14	1982.0
64.15	1997.0
64.16	1979.0
64.17	1948.0
64.18	1923.0
64.19	1948.0
64.2	2000.0
64.21	1982.0
64.22	2039.0
64.23	2026.0
64.24	2004.0
64.25	1964.0
64.26	2014.0
64.27	2041.0
64.28	1990.0
64.29	1941.0
64.3	2044.0
64.31	2020.0
64.32	1974.0
64.33	2006.0
64.34	1984.0
64.35	1967.0
64.36	2000.0
64.37	1990.0
64.38	2016.0
64.39	2040.0
64.4	2066.0
64.41	2055.0
64.42	2046.0
64.43	2074.0
64.44	2022.0
64.45	2079.0
64.46	2085.0
64.47	2153.0
64.48	2111.0
64.49	2054.0
64.5	2127.0
64.51	2172.0
64.52	2121.0
64.53	2118.0
64.54	2020.0
64.55	2080.0
64.56	2082.0
64.57	2067.0
64.58	2085.0
64.59	2107.0
64.6	2189.0
64.61	2200.0
64.62	2190.0
64.63	2105.0
64.64	2211.0
64.65	2243.0
64.66	2224.0
64.67	2225.0
64.68	2141.0
64.69	2130.0
64.7	2175.0
64.71	2210.0
64.72	2225.0
64.73	2221.0
64.74	2282.0
64.75	2327.0
64.76	2268.0
64.77	2242.0
64.78	2282.0
64.79	2293.0
64.8	2229.0
64.81	2252.0
64.82	2287.0
64.83	2258.0
64.84	2263.0
64.85	2293.0
64.86	2293.0
64.87	2303.0
64.88	2298.0
64.89	2310.0
64.9	2301.0
64.91	2303.0
64.92	2250.0
64.93	2259.0
64.94	2301.0
64.95	2321.0
64.96	2259.0
64.97	2219.0
64.98	2237.0
64.99	2227.0
65.0	2211.0
65.01	2301.0
65.02	2239.0
65.03	2279.0
65.04	2193.0
65.05	2231.0
65.06	2254.0
65.07	2295.0
65.08	2254.0
65.09	2294.0
65.1	2270.0
65.11	2241.0
65.12	2196.0
65.13	2229.0
65.14	2196.0
65.15	2170.0
65.16	2148.0
65.17	2191.0
65.18	2165.0
65.19	2186.0
65.2	2160.0
65.21	2150.0
65.22	2221.0
65.23	2223.0
65.24	2112.0
65.25	2081.0
65.26	2121.0
65.27	2172.0
65.28	2110.0
65.29	2165.0
65.3	2136.0
65.31	2099.0
65.32	2123.0
65.33	2124.0
65.34	2111.0
65.35	2084.0
65.36	2065.0
65.37	2116.0
65.38	2093.0
65.39	2123.0
65.4	2034.0
65.41	2065.0
65.42	2092.0
65.43	2047.0
65.44	2073.0
65.45	2066.0
65.46	2057.0
65.47	2039.0
65.48	2097.0
65.49	2138.0
65.5	2028.0
65.51	2061.0
65.52	2088.0
65.53	2127.0
65.54	2106.0
65.55	2071.0
65.56	2061.0
65.57	2044.0
65.58	2068.0
65.59	2038.0
65.6	2076.0
65.61	2141.0
65.62	2038.0
65.63	2049.0
65.64	2024.0
65.65	2027.0
65.66	2090.0
65.67	2031.0
65.68	2054.0
65.69	2083.0
65.7	2005.0
65.71	2014.0
65.72	2063.0
65.73	2024.0
65.74	2037.0
65.75	2015.0
65.76	1978.0
65.77	2020.0
65.78	1997.0
65.79	1980.0
65.8	2060.0
65.81	1974.0
65.82	2031.0
65.83	1998.0
65.84	2025.0
65.85	2040.0
65.86	2021.0
65.87	2037.0
65.88	2063.0
65.89	2017.0
65.9	1998.0
65.91	2021.0
65.92	2077.0
65.93	2076.0
65.94	2062.0
65.95	2011.0
65.96	2005.0
65.97	1979.0
65.98	1987.0
65.99	2030.0
66.0	2051.0
66.01	2076.0
66.02	2001.0
66.03	1990.0
66.04	1996.0
66.05	1988.0
66.06	2059.0
66.07	2022.0
66.08	2022.0
66.09	2026.0
66.1	1983.0
66.11	2041.0
66.12	2071.0
66.13	2004.0
66.14	2041.0
66.15	2007.0
66.16	1953.0
66.17	2027.0
66.18	2046.0
66.19	2023.0
66.2	2018.0
66.21	2037.0
66.22	2019.0
66.23	2081.0
66.24	2013.0
66.25	2010.0
66.26	2034.0
66.27	2019.0
66.28	1978.0
66.29	2033.0
66.3	2010.0
66.31	1970.0
66.32	2048.0
66.33	2053.0
66.34	2095.0
66.35	2019.0
66.36	2035.0
66.37	1996.0
66.38	2007.0
66.39	2033.0
66.4	2018.0
66.41	2017.0
66.42	2041.0
66.43	1986.0
66.44	1994.0
66.45	2011.0
66.46	1983.0
66.47	2021.0
66.48	2094.0
66.49	2047.0
66.5	2042.0
66.51	2038.0
66.52	2059.0
66.53	2027.0
66.54	1960.0
66.55	1985.0
66.56	2064.0
66.57	2099.0
66.58	2104.0
66.59	2059.0
66.6	2099.0
66.61	2098.0
66.62	2111.0
66.63	2046.0
66.64	1965.0
66.65	2051.0
66.66	2091.0
66.67	2054.0
66.68	2046.0
66.69	2019.0
66.7	1976.0
66.71	2037.0
66.72	2093.0
66.73	2073.0
66.74	2081.0
66.75	2068.0
66.76	2081.0
66.77	2116.0
66.78	2068.0
66.79	2061.0
66.8	2106.0
66.81	2115.0
66.82	2113.0
66.83	2157.0
66.84	2137.0
66.85	2108.0
66.86	2051.0
66.87	2068.0
66.88	2126.0
66.89	2134.0
66.9	2074.0
66.91	2071.0
66.92	2133.0
66.93	2162.0
66.94	2122.0
66.95	2113.0
66.96	2137.0
66.97	2134.0
66.98	2105.0
66.99	2115.0
67.0	2136.0
67.01	2150.0
67.02	2157.0
67.03	2145.0
67.04	2140.0
67.05	2184.0
67.06	2206.0
67.07	2126.0
67.08	2109.0
67.09	2091.0
67.1	2148.0
67.11	2117.0
67.12	2172.0
67.13	2207.0
67.14	2158.0
67.15	2076.0
67.16	2124.0
67.17	2165.0
67.18	2113.0
67.19	2138.0
67.2	2182.0
67.21	2161.0
67.22	2151.0
67.23	2162.0
67.24	2163.0
67.25	2146.0
67.26	2134.0
67.27	2144.0
67.28	2203.0
67.29	2184.0
67.3	2209.0
67.31	2180.0
67.32	2182.0
67.33	2141.0
67.34	2162.0
67.35	2123.0
67.36	2090.0
67.37	2147.0
67.38	2147.0
67.39	2099.0
67.4	2097.0
67.41	2142.0
67.42	2145.0
67.43	2144.0
67.44	2169.0
67.45	2091.0
67.46	2088.0
67.47	2122.0
67.48	2147.0
67.49	2125.0
67.5	2134.0
67.51	2124.0
67.52	2121.0
67.53	2135.0
67.54	2173.0
67.55	2124.0
67.56	2111.0
67.57	2113.0
67.58	2051.0
67.59	2050.0
67.6	2116.0
67.61	2126.0
67.62	2044.0
67.63	2096.0
67.64	2087.0
67.65	2051.0
67.66	2091.0
67.67	2090.0
67.68	2105.0
67.69	2071.0
67.7	2029.0
67.71	2035.0
67.72	2022.0
67.73	2120.0
67.74	2156.0
67.75	2036.0
67.76	1973.0
67.77	2016.0
67.78	2030.0
67.79	2057.0
67.8	2012.0
67.81	2034.0
67.82	2000.0
67.83	2027.0
67.84	2002.0
67.85	2048.0
67.86	2044.0
67.87	2030.0
67.88	2034.0
67.89	2063.0
67.9	2053.0
67.91	2058.0
67.92	2056.0
67.93	2004.0
67.94	2050.0
67.95	2102.0
67.96	2094.0
67.97	2031.0
67.98	2006.0
67.99	2003.0
68.0	1982.0
68.01	2007.0
68.02	2036.0
68.03	2001.0
68.04	1979.0
68.05	1984.0
68.06	2042.0
68.07	2016.0
68.08	1983.0
68.09	1902.0
68.1	1948.0
68.11	1978.0
68.12	1942.0
68.13	1948.0
68.14	1960.0
68.15	1977.0
68.16	1974.0
68.17	2005.0
68.18	2006.0
68.19	1939.0
68.2	1963.0
68.21	1957.0
68.22	1958.0
68.23	1957.0
68.24	1948.0
68.25	1948.0
68.26	1948.0
68.27	1975.0
68.28	1986.0
68.29	1983.0
68.3	1958.0
68.31	1946.0
68.32	2006.0
68.33	2026.0
68.34	1977.0
68.35	1986.0
68.36	1988.0
68.37	1971.0
68.38	1999.0
68.39	1982.0
68.4	1943.0
68.41	1890.0
68.42	1931.0
68.43	1933.0
68.44	1953.0
68.45	1915.0
68.46	1911.0
68.47	1957.0
68.48	1928.0
68.49	1906.0
68.5	1916.0
68.51	1943.0
68.52	1943.0
68.53	1986.0
68.54	1943.0
68.55	1896.0
68.56	1954.0
68.57	1994.0
68.58	1944.0
68.59	1937.0
68.6	1955.0
68.61	1942.0
68.62	1946.0
68.63	1983.0
68.64	1937.0
68.65	1970.0
68.66	1988.0
68.67	1946.0
68.68	1920.0
68.69	1909.0
68.7	1895.0
68.71	1904.0
68.72	1967.0
68.73	1920.0
68.74	1913.0
68.75	1895.0
68.76	1877.0
68.77	1860.0
68.78	1885.0
68.79	1912.0
68.8	1930.0
68.81	1914.0
68.82	1939.0
68.83	1968.0
68.84	1889.0
68.85	1898.0
68.86	1895.0
68.87	1945.0
68.88	1946.0
68.89	1916.0
68.9	1946.0
68.91	1885.0
68.92	1931.0
68.93	1915.0
68.94	1890.0
68.95	1896.0
68.96	1883.0
68.97	1883.0
68.98	1928.0
68.99	1951.0
69.0	1928.0
69.01	1848.0
69.02	1906.0
69.03	1891.0
69.04	1908.0
69.05	1915.0
69.06	1904.0
69.07	1936.0
69.08	1868.0
69.09	1888.0
69.1	1838.0
69.11	1909.0
69.12	1907.0
69.13	1858.0
69.14	1824.0
69.15	1864.0
69.16	1868.0
69.17	1867.0
69.18	1859.0
69.19	1922.0
69.2	1914.0
69.21	1936.0
69.22	1933.0
69.23	1930.0
69.24	1921.0
69.25	1929.0
69.26	1978.0
69.27	1965.0
69.28	1926.0
69.29	1934.0
69.3	1946.0
69.31	1918.0
69.32	1878.0
69.33	1868.0
69.34	1865.0
69.35	1847.0
69.36	1884.0
69.37	1880.0
69.38	1902.0
69.39	1947.0
69.4	1919.0
69.41	1908.0
69.42	1923.0
69.43	1903.0
69.44	1896.0
69.45	1936.0
69.46	1910.0
69.47	1895.0
69.48	1959.0
69.49	1905.0
69.5	1917.0
69.51	1879.0
69.52	1883.0
69.53	1918.0
69.54	1893.0
69.55	1866.0
69.56	1948.0
69.57	1933.0
69.58	1862.0
69.59	1848.0
69.6	1906.0
69.61	1897.0
69.62	1866.0
69.63	1913.0
69.64	1909.0
69.65	1856.0
69.66	1927.0
69.67	1878.0
69.68	1874.0
69.69	1895.0
69.7	1889.0
69.71	1859.0
69.72	1876.0
69.73	1884.0
69.74	1888.0
69.75	1914.0
69.76	1886.0
69.77	1890.0
69.78	1897.0
69.79	1910.0
69.8	1911.0
69.81	1910.0
69.82	1902.0
69.83	1906.0
69.84	1916.0
69.85	1948.0
69.86	1894.0
69.87	1887.0
69.88	1890.0
69.89	1910.0
69.9	1871.0
69.91	1867.0
69.92	1866.0
69.93	1877.0
69.94	1914.0
69.95	1897.0
69.96	1930.0
69.97	1942.0
69.98	1947.0
69.99	1974.0
70.0	1928.0
70.01	1926.0
70.02	1914.0
70.03	1858.0
70.04	1874.0
70.05	1899.0
70.06	1892.0
70.07	1881.0
70.08	1902.0
70.09	1871.0
70.1	1885.0
70.11	1932.0
70.12	1898.0
70.13	1928.0
70.14	1991.0
70.15	1967.0
70.16	1931.0
70.17	1900.0
70.18	1871.0
70.19	1846.0
70.2	1859.0
70.21	1909.0
70.22	1909.0
70.23	1888.0
70.24	1922.0
70.25	1942.0
70.26	1918.0
70.27	1904.0
70.28	1971.0
70.29	1922.0
70.3	1894.0
70.31	1920.0
70.32	1934.0
70.33	1951.0
70.34	1902.0
70.35	1881.0
70.36	1917.0
70.37	1938.0
70.38	1961.0
70.39	1974.0
70.4	1999.0
70.41	2005.0
70.42	1964.0
70.43	1931.0
70.44	1916.0
70.45	1934.0
70.46	1921.0
70.47	1952.0
70.48	2019.0
70.49	1967.0
70.5	1982.0
70.51	1975.0
70.52	1946.0
70.53	1913.0
70.54	1958.0
70.55	2015.0
70.56	1988.0
70.57	1918.0
70.58	1901.0
70.59	1958.0
70.6	1997.0
70.61	1941.0
70.62	1940.0
70.63	1952.0
70.64	1896.0
70.65	1921.0
70.66	1972.0
70.67	1933.0
70.68	1934.0
70.69	1978.0
70.7	2012.0
70.71	1964.0
70.72	1980.0
70.73	1998.0
70.74	2042.0
70.75	2016.0
70.76	1958.0
70.77	1987.0
70.78	2037.0
70.79	1997.0
70.8	1989.0
70.81	2019.0
70.82	1992.0
70.83	2003.0
70.84	1998.0
70.85	1965.0
70.86	1973.0
70.87	1957.0
70.88	1974.0
70.89	2034.0
70.9	2067.0
70.91	2014.0
70.92	2060.0
70.93	2042.0
70.94	2030.0
70.95	2025.0
70.96	2067.0
70.97	2051.0
70.98	2046.0
70.99	1996.0
71.0	2008.0
71.01	2042.0
71.02	2052.0
71.03	2106.0
71.04	2064.0
71.05	2063.0
71.06	2111.0
71.07	2088.0
71.08	2080.0
71.09	2066.0
71.1	2081.0
71.11	2118.0
71.12	2191.0
71.13	2162.0
71.14	2094.0
71.15	2046.0
71.16	2089.0
71.17	2075.0
71.18	2101.0
71.19	2050.0
71.2	2134.0
71.21	2134.0
71.22	2092.0
71.23	2137.0
71.24	2162.0
71.25	2170.0
71.26	2174.0
71.27	2130.0
71.28	2105.0
71.29	2143.0
71.3	2162.0
71.31	2177.0
71.32	2205.0
71.33	2190.0
71.34	2161.0
71.35	2149.0
71.36	2161.0
71.37	2186.0
71.38	2154.0
71.39	2161.0
71.4	2153.0
71.41	2161.0
71.42	2187.0
71.43	2176.0
71.44	2153.0
71.45	2205.0
71.46	2223.0
71.47	2214.0
71.48	2209.0
71.49	2256.0
71.5	2249.0
71.51	2206.0
71.52	2226.0
71.53	2246.0
71.54	2292.0
71.55	2306.0
71.56	2257.0
71.57	2232.0
71.58	2272.0
71.59	2306.0
71.6	2313.0
71.61	2297.0
71.62	2267.0
71.63	2289.0
71.64	2314.0
71.65	2287.0
71.66	2251.0
71.67	2329.0
71.68	2369.0
71.69	2343.0
71.7	2386.0
71.71	2391.0
71.72	2321.0
71.73	2381.0
71.74	2446.0
71.75	2425.0
71.76	2380.0
71.77	2301.0
71.78	2393.0
71.79	2413.0
71.8	2423.0
71.81	2448.0
71.82	2384.0
71.83	2433.0
71.84	2502.0
71.85	2458.0
71.86	2405.0
71.87	2447.0
71.88	2476.0
71.89	2488.0
71.9	2502.0
71.91	2562.0
71.92	2571.0
71.93	2570.0
71.94	2559.0
71.95	2595.0
71.96	2598.0
71.97	2539.0
71.98	2586.0
71.99	2568.0
72.0	2539.0
72.01	2541.0
72.02	2575.0
72.03	2589.0
72.04	2663.0
72.05	2631.0
72.06	2553.0
72.07	2555.0
72.08	2568.0
72.09	2644.0
72.1	2628.0
72.11	2641.0
72.12	2669.0
72.13	2666.0
72.14	2663.0
72.15	2698.0
72.16	2678.0
72.17	2689.0
72.18	2746.0
72.19	2725.0
72.2	2684.0
72.21	2751.0
72.22	2750.0
72.23	2735.0
72.24	2751.0
72.25	2792.0
72.26	2722.0
72.27	2713.0
72.28	2735.0
72.29	2836.0
72.3	2834.0
72.31	2824.0
72.32	2807.0
72.33	2851.0
72.34	2780.0
72.35	2814.0
72.36	2853.0
72.37	2823.0
72.38	2868.0
72.39	2821.0
72.4	2804.0
72.41	2727.0
72.42	2796.0
72.43	2790.0
72.44	2802.0
72.45	2790.0
72.46	2772.0
72.47	2788.0
72.48	2706.0
72.49	2702.0
72.5	2758.0
72.51	2750.0
72.52	2703.0
72.53	2657.0
72.54	2668.0
72.55	2710.0
72.56	2774.0
72.57	2707.0
72.58	2645.0
72.59	2668.0
72.6	2612.0
72.61	2610.0
72.62	2684.0
72.63	2687.0
72.64	2624.0
72.65	2612.0
72.66	2580.0
72.67	2560.0
72.68	2573.0
72.69	2561.0
72.7	2511.0
72.71	2504.0
72.72	2498.0
72.73	2535.0
72.74	2556.0
72.75	2524.0
72.76	2462.0
72.77	2433.0
72.78	2440.0
72.79	2447.0
72.8	2439.0
72.81	2415.0
72.82	2408.0
72.83	2402.0
72.84	2392.0
72.85	2368.0
72.86	2397.0
72.87	2408.0
72.88	2319.0
72.89	2297.0
72.9	2324.0
72.91	2344.0
72.92	2353.0
72.93	2374.0
72.94	2381.0
72.95	2326.0
72.96	2314.0
72.97	2307.0
72.98	2337.0
72.99	2359.0
73.0	2293.0
73.01	2200.0
73.02	2247.0
73.03	2273.0
73.04	2252.0
73.05	2275.0
73.06	2214.0
73.07	2245.0
73.08	2232.0
73.09	2133.0
73.1	2188.0
73.11	2212.0
73.12	2132.0
73.13	2163.0
73.14	2148.0
73.15	2150.0
73.16	2084.0
73.17	2080.0
73.18	2138.0
73.19	2204.0
73.2	2136.0
73.21	2112.0
73.22	2050.0
73.23	2078.0
73.24	2129.0
73.25	2103.0
73.26	2107.0
73.27	2068.0
73.28	2090.0
73.29	2125.0
73.3	2077.0
73.31	2029.0
73.32	2090.0
73.33	2042.0
73.34	2042.0
73.35	2082.0
73.36	2069.0
73.37	2050.0
73.38	2072.0
73.39	2065.0
73.4	2034.0
73.41	2041.0
73.42	2046.0
73.43	2017.0
73.44	2059.0
73.45	2075.0
73.46	2040.0
73.47	2000.0
73.48	2022.0
73.49	2062.0
73.5	2037.0
73.51	2001.0
73.52	2014.0
73.53	1992.0
73.54	1915.0
73.55	1954.0
73.56	1984.0
73.57	2000.0
73.58	1972.0
73.59	1982.0
73.6	1991.0
73.61	2001.0
73.62	1981.0
73.63	2007.0
73.64	1987.0
73.65	1968.0
73.66	1973.0
73.67	1955.0
73.68	1993.0
73.69	2013.0
73.7	1997.0
73.71	1947.0
73.72	1923.0
73.73	1969.0
73.74	1944.0
73.75	1983.0
73.76	1921.0
73.77	1891.0
73.78	1905.0
73.79	1928.0
73.8	1935.0
73.81	1900.0
73.82	1891.0
73.83	1986.0
73.84	1984.0
73.85	1915.0
73.86	1899.0
73.87	1941.0
73.88	1872.0
73.89	1870.0
73.9	1897.0
73.91	1939.0
73.92	1919.0
73.93	1869.0
73.94	1869.0
73.95	1916.0
73.96	1912.0
73.97	1883.0
73.98	1887.0
73.99	1923.0
74.0	1872.0
74.01	1876.0
74.02	1860.0
74.03	1869.0
74.04	1923.0
74.05	1918.0
74.06	1907.0
74.07	1858.0
74.08	1897.0
74.09	1906.0
74.1	1852.0
74.11	1875.0
74.12	1881.0
74.13	1896.0
74.14	1888.0
74.15	1920.0
74.16	1906.0
74.17	1866.0
74.18	1889.0
74.19	1913.0
74.2	1860.0
74.21	1870.0
74.22	1859.0
74.23	1870.0
74.24	1857.0
74.25	1879.0
74.26	1891.0
74.27	1878.0
74.28	1835.0
74.29	1837.0
74.3	1867.0
74.31	1882.0
74.32	1881.0
74.33	1830.0
74.34	1832.0
74.35	1887.0
74.36	1821.0
74.37	1892.0
74.38	1900.0
74.39	1837.0
74.4	1841.0
74.41	1849.0
74.42	1821.0
74.43	1820.0
74.44	1827.0
74.45	1849.0
74.46	1828.0
74.47	1837.0
74.48	1850.0
74.49	1839.0
74.5	1843.0
74.51	1835.0
74.52	1802.0
74.53	1787.0
74.54	1790.0
74.55	1785.0
74.56	1834.0
74.57	1826.0
74.58	1873.0
74.59	1883.0
74.6	1809.0
74.61	1813.0
74.62	1843.0
74.63	1864.0
74.64	1854.0
74.65	1834.0
74.66	1840.0
74.67	1847.0
74.68	1823.0
74.69	1847.0
74.7	1844.0
74.71	1834.0
74.72	1815.0
74.73	1858.0
74.74	1833.0
74.75	1837.0
74.76	1885.0
74.77	1858.0
74.78	1855.0
74.79	1813.0
74.8	1874.0
74.81	1854.0
74.82	1839.0
74.83	1864.0
74.84	1845.0
74.85	1853.0
74.86	1861.0
74.87	1837.0
74.88	1874.0
74.89	1830.0
74.9	1810.0
74.91	1793.0
74.92	1801.0
74.93	1825.0
74.94	1777.0
74.95	1746.0
74.96	1737.0
74.97	1780.0
74.98	1793.0
74.99	1791.0
75.0	1791.0
75.01	1840.0
75.02	1824.0
75.03	1793.0
75.04	1749.0
75.05	1802.0
75.06	1829.0
75.07	1866.0
75.08	1866.0
75.09	1820.0
75.1	1848.0
75.11	1805.0
75.12	1794.0
75.13	1816.0
75.14	1845.0
75.15	1833.0
75.16	1847.0
75.17	1814.0
75.18	1863.0
75.19	1784.0
75.2	1826.0
75.21	1773.0
75.22	1837.0
75.23	1831.0
75.24	1784.0
75.25	1763.0
75.26	1794.0
75.27	1791.0
75.28	1807.0
75.29	1829.0
75.3	1819.0
75.31	1804.0
75.32	1797.0
75.33	1787.0
75.34	1816.0
75.35	1851.0
75.36	1881.0
75.37	1813.0
75.38	1814.0
75.39	1821.0
75.4	1801.0
75.41	1844.0
75.42	1769.0
75.43	1813.0
75.44	1864.0
75.45	1770.0
75.46	1783.0
75.47	1802.0
75.48	1843.0
75.49	1873.0
75.5	1882.0
75.51	1844.0
75.52	1863.0
75.53	1857.0
75.54	1844.0
75.55	1835.0
75.56	1793.0
75.57	1777.0
75.58	1819.0
75.59	1862.0
75.6	1787.0
75.61	1818.0
75.62	1784.0
75.63	1844.0
75.64	1830.0
75.65	1812.0
75.66	1805.0
75.67	1823.0
75.68	1842.0
75.69	1826.0
75.7	1805.0
75.71	1841.0
75.72	1818.0
75.73	1805.0
75.74	1828.0
75.75	1859.0
75.76	1859.0
75.77	1851.0
75.78	1832.0
75.79	1818.0
75.8	1826.0
75.81	1823.0
75.82	1820.0
75.83	1814.0
75.84	1793.0
75.85	1798.0
75.86	1823.0
75.87	1846.0
75.88	1831.0
75.89	1794.0
75.9	1804.0
75.91	1799.0
75.92	1815.0
75.93	1808.0
75.94	1803.0
75.95	1799.0
75.96	1785.0
75.97	1816.0
75.98	1799.0
75.99	1772.0
76.0	1799.0
76.01	1838.0
76.02	1794.0
76.03	1829.0
76.04	1806.0
76.05	1834.0
76.06	1826.0
76.07	1798.0
76.08	1767.0
76.09	1805.0
76.1	1848.0
76.11	1836.0
76.12	1805.0
76.13	1809.0
76.14	1836.0
76.15	1859.0
76.16	1867.0
76.17	1885.0
76.18	1837.0
76.19	1813.0
76.2	1770.0
76.21	1723.0
76.22	1757.0
76.23	1831.0
76.24	1816.0
76.25	1854.0
76.26	1806.0
76.27	1833.0
76.28	1873.0
76.29	1870.0
76.3	1761.0
76.31	1740.0
76.32	1804.0
76.33	1822.0
76.34	1839.0
76.35	1767.0
76.36	1769.0
76.37	1822.0
76.38	1842.0
76.39	1821.0
76.4	1846.0
76.41	1857.0
76.42	1810.0
76.43	1804.0
76.44	1764.0
76.45	1830.0
76.46	1806.0
76.47	1870.0
76.48	1819.0
76.49	1790.0
76.5	1782.0
76.51	1814.0
76.52	1803.0
76.53	1833.0
76.54	1839.0
76.55	1807.0
76.56	1825.0
76.57	1824.0
76.58	1821.0
76.59	1831.0
76.6	1777.0
76.61	1765.0
76.62	1792.0
76.63	1811.0
76.64	1760.0
76.65	1772.0
76.66	1821.0
76.67	1778.0
76.68	1728.0
76.69	1772.0
76.7	1791.0
76.71	1802.0
76.72	1799.0
76.73	1774.0
76.74	1805.0
76.75	1823.0
76.76	1807.0
76.77	1774.0
76.78	1850.0
76.79	1818.0
76.8	1753.0
76.81	1757.0
76.82	1802.0
76.83	1766.0
76.84	1751.0
76.85	1796.0
76.86	1805.0
76.87	1776.0
76.88	1787.0
76.89	1771.0
76.9	1798.0
76.91	1829.0
76.92	1822.0
76.93	1827.0
76.94	1778.0
76.95	1764.0
76.96	1742.0
76.97	1751.0
76.98	1782.0
76.99	1764.0
77.0	1771.0
77.01	1760.0
77.02	1748.0
77.03	1773.0
77.04	1792.0
77.05	1788.0
77.06	1822.0
77.07	1844.0
77.08	1731.0
77.09	1768.0
77.1	1730.0
77.11	1792.0
77.12	1797.0
77.13	1753.0
77.14	1775.0
77.15	1813.0
77.16	1859.0
77.17	1812.0
77.18	1822.0
77.19	1818.0
77.2	1800.0
77.21	1794.0
77.22	1790.0
77.23	1818.0
77.24	1848.0
77.25	1849.0
77.26	1798.0
77.27	1758.0
77.28	1773.0
77.29	1783.0
77.3	1742.0
77.31	1740.0
77.32	1732.0
77.33	1744.0
77.34	1804.0
77.35	1815.0
77.36	1756.0
77.37	1781.0
77.38	1818.0
77.39	1784.0
77.4	1810.0
77.41	1814.0
77.42	1789.0
77.43	1759.0
77.44	1766.0
77.45	1796.0
77.46	1796.0
77.47	1787.0
77.48	1779.0
77.49	1747.0
77.5	1759.0
77.51	1778.0
77.52	1807.0
77.53	1800.0
77.54	1748.0
77.55	1760.0
77.56	1771.0
77.57	1774.0
77.58	1793.0
77.59	1767.0
77.6	1738.0
77.61	1794.0
77.62	1797.0
77.63	1763.0
77.64	1784.0
77.65	1846.0
77.66	1823.0
77.67	1794.0
77.68	1740.0
77.69	1741.0
77.7	1769.0
77.71	1788.0
77.72	1797.0
77.73	1804.0
77.74	1774.0
77.75	1769.0
77.76	1804.0
77.77	1790.0
77.78	1765.0
77.79	1774.0
77.8	1786.0
77.81	1773.0
77.82	1770.0
77.83	1761.0
77.84	1794.0
77.85	1766.0
77.86	1779.0
77.87	1822.0
77.88	1798.0
77.89	1813.0
77.9	1789.0
77.91	1772.0
77.92	1768.0
77.93	1750.0
77.94	1748.0
77.95	1774.0
77.96	1824.0
77.97	1749.0
77.98	1751.0
77.99	1751.0
78.0	1785.0
78.01	1792.0
78.02	1763.0
78.03	1771.0
78.04	1768.0
78.05	1737.0
78.06	1729.0
78.07	1782.0
78.08	1785.0
78.09	1782.0
78.1	1776.0
78.11	1743.0
78.12	1767.0
78.13	1698.0
78.14	1761.0
78.15	1801.0
78.16	1777.0
78.17	1737.0
78.18	1756.0
78.19	1794.0
78.2	1782.0
78.21	1812.0
78.22	1796.0
78.23	1798.0
78.24	1789.0
78.25	1793.0
78.26	1801.0
78.27	1810.0
78.28	1782.0
78.29	1790.0
78.3	1789.0
78.31	1809.0
78.32	1760.0
78.33	1752.0
78.34	1804.0
78.35	1784.0
78.36	1890.0
78.37	1858.0
78.38	1842.0
78.39	1855.0
78.4	1802.0
78.41	1761.0
78.42	1823.0
78.43	1836.0
78.44	1814.0
78.45	1835.0
78.46	1838.0
78.47	1799.0
78.48	1798.0
78.49	1809.0
78.5	1831.0
78.51	1818.0
78.52	1846.0
78.53	1794.0
78.54	1773.0
78.55	1825.0
78.56	1795.0
78.57	1815.0
78.58	1838.0
78.59	1848.0
78.6	1788.0
78.61	1797.0
78.62	1833.0
78.63	1760.0
78.64	1769.0
78.65	1821.0
78.66	1829.0
78.67	1762.0
78.68	1713.0
78.69	1754.0
78.7	1790.0
78.71	1778.0
78.72	1807.0
78.73	1778.0
78.74	1770.0
78.75	1838.0
78.76	1848.0
78.77	1789.0
78.78	1837.0
78.79	1876.0
78.8	1862.0
78.81	1824.0
78.82	1795.0
78.83	1829.0
78.84	1833.0
78.85	1795.0
78.86	1805.0
78.87	1859.0
78.88	1850.0
78.89	1800.0
78.9	1760.0
78.91	1793.0
78.92	1768.0
78.93	1735.0
78.94	1758.0
78.95	1796.0
78.96	1833.0
78.97	1887.0
78.98	1877.0
78.99	1809.0
79.0	1812.0
79.01	1825.0
79.02	1813.0
79.03	1827.0
79.04	1852.0
79.05	1816.0
79.06	1817.0
79.07	1803.0
79.08	1784.0
79.09	1802.0
79.1	1857.0
79.11	1836.0
79.12	1808.0
79.13	1823.0
79.14	1853.0
79.15	1841.0
79.16	1875.0
79.17	1869.0
79.18	1845.0
79.19	1860.0
79.2	1890.0
79.21	1893.0
79.22	1848.0
79.23	1866.0
79.24	1889.0
79.25	1863.0
79.26	1837.0
79.27	1802.0
79.28	1845.0
79.29	1877.0
79.3	1906.0
79.31	1864.0
79.32	1882.0
79.33	1889.0
79.34	1885.0
79.35	1899.0
79.36	1863.0
79.37	1907.0
79.38	1866.0
79.39	1879.0
79.4	1883.0
79.41	1868.0
79.42	1911.0
79.43	1907.0
79.44	1882.0
79.45	1914.0
79.46	1868.0
79.47	1897.0
79.48	1903.0
79.49	1938.0
79.5	1850.0
79.51	1849.0
79.52	1924.0
79.53	1956.0
79.54	1890.0
79.55	1854.0
79.56	1858.0
79.57	1913.0
79.58	1914.0
79.59	1931.0
79.6	1913.0
79.61	1939.0
79.62	1906.0
79.63	1925.0
79.64	1862.0
79.65	1884.0
79.66	1942.0
79.67	1945.0
79.68	1873.0
79.69	1875.0
79.7	1879.0
79.71	1821.0
79.72	1859.0
79.73	1880.0
79.74	1830.0
79.75	1839.0
79.76	1846.0
79.77	1891.0
79.78	1873.0
79.79	1832.0
79.8	1832.0
79.81	1859.0
79.82	1930.0
79.83	1895.0
79.84	1832.0
79.85	1829.0
79.86	1889.0
79.87	1890.0
79.88	1912.0
79.89	1862.0
79.9	1814.0
79.91	1814.0
79.92	1820.0
79.93	1861.0
79.94	1854.0
79.95	1832.0
79.96	1817.0
79.97	1832.0
79.98	1872.0
79.99	1862.0
80.0	1820.0
80.01	1784.0
80.02	1830.0
80.03	1842.0
80.04	1830.0
80.05	1843.0
80.06	1837.0
80.07	1804.0
80.08	1769.0
80.09	1779.0
80.1	1769.0
80.11	1780.0
80.12	1793.0
80.13	1783.0
80.14	1831.0
80.15	1831.0
80.16	1807.0
80.17	1806.0
80.18	1820.0
80.19	1852.0
80.2	1885.0
80.21	1834.0
80.22	1797.0
80.23	1810.0
80.24	1800.0
80.25	1835.0
80.26	1849.0
80.27	1840.0
80.28	1830.0
80.29	1764.0
80.3	1829.0
80.31	1862.0
80.32	1803.0
80.33	1765.0
80.34	1812.0
80.35	1844.0
80.36	1820.0
80.37	1775.0
80.38	1797.0
80.39	1796.0
80.4	1768.0
80.41	1805.0
80.42	1851.0
80.43	1826.0
80.44	1810.0
80.45	1767.0
80.46	1781.0
80.47	1835.0
80.48	1839.0
80.49	1763.0
80.5	1811.0
80.51	1821.0
80.52	1832.0
80.53	1837.0
80.54	1819.0
80.55	1756.0
80.56	1808.0
80.57	1770.0
80.58	1779.0
80.59	1767.0
80.6	1822.0
80.61	1861.0
80.62	1826.0
80.63	1783.0
80.64	1789.0
80.65	1806.0
80.66	1791.0
80.67	1768.0
80.68	1811.0
80.69	1855.0
80.7	1763.0
80.71	1771.0
80.72	1724.0
80.73	1749.0
80.74	1739.0
80.75	1782.0
80.76	1785.0
80.77	1782.0
80.78	1814.0
80.79	1769.0
80.8	1759.0
80.81	1782.0
80.82	1772.0
80.83	1775.0
80.84	1764.0
80.85	1752.0
80.86	1716.0
80.87	1768.0
80.88	1791.0
80.89	1837.0
80.9	1755.0
80.91	1725.0
80.92	1776.0
80.93	1798.0
80.94	1770.0
80.95	1785.0
80.96	1791.0
80.97	1828.0
80.98	1843.0
80.99	1775.0
81.0	1779.0
81.01	1836.0
81.02	1781.0
81.03	1775.0
81.04	1779.0
81.05	1757.0
81.06	1779.0
81.07	1776.0
81.08	1775.0
81.09	1748.0
81.1	1779.0
81.11	1700.0
81.12	1753.0
81.13	1853.0
81.14	1845.0
81.15	1742.0
81.16	1733.0
81.17	1778.0
81.18	1767.0
81.19	1737.0
81.2	1758.0
81.21	1804.0
81.22	1790.0
81.23	1792.0
81.24	1802.0
81.25	1782.0
81.26	1763.0
81.27	1754.0
81.28	1773.0
81.29	1784.0
81.3	1750.0
81.31	1786.0
81.32	1808.0
81.33	1831.0
81.34	1813.0
81.35	1793.0
81.36	1790.0
81.37	1789.0
81.38	1771.0
81.39	1792.0
81.4	1792.0
81.41	1765.0
81.42	1770.0
81.43	1770.0
81.44	1743.0
81.45	1734.0
81.46	1779.0
81.47	1797.0
81.48	1749.0
81.49	1774.0
81.5	1794.0
81.51	1755.0
81.52	1783.0
81.53	1813.0
81.54	1804.0
81.55	1778.0
81.56	1754.0
81.57	1725.0
81.58	1743.0
81.59	1768.0
81.6	1775.0
81.61	1799.0
81.62	1794.0
81.63	1745.0
81.64	1782.0
81.65	1782.0
81.66	1746.0
81.67	1727.0
81.68	1732.0
81.69	1759.0
81.7	1795.0
81.71	1794.0
81.72	1788.0
81.73	1752.0
81.74	1747.0
81.75	1786.0
81.76	1785.0
81.77	1783.0
81.78	1824.0
81.79	1805.0
81.8	1767.0
81.81	1773.0
81.82	1768.0
81.83	1768.0
81.84	1767.0
81.85	1780.0
81.86	1794.0
81.87	1766.0
81.88	1815.0
81.89	1794.0
81.9	1734.0
81.91	1735.0
81.92	1712.0
81.93	1741.0
81.94	1763.0
81.95	1750.0
81.96	1773.0
81.97	1773.0
81.98	1766.0
81.99	1753.0
82.0	1790.0
82.01	1749.0
82.02	1716.0
82.03	1740.0
82.04	1760.0
82.05	1769.0
82.06	1797.0
82.07	1793.0
82.08	1760.0
82.09	1800.0
82.1	1830.0
82.11	1822.0
82.12	1858.0
82.13	1841.0
82.14	1847.0
82.15	1799.0
82.16	1738.0
82.17	1772.0
82.18	1754.0
82.19	1721.0
82.2	1741.0
82.21	1752.0
82.22	1769.0
82.23	1761.0
82.24	1745.0
82.25	1736.0
82.26	1787.0
82.27	1821.0
82.28	1833.0
82.29	1828.0
82.3	1809.0
82.31	1809.0
82.32	1777.0
82.33	1708.0
82.34	1684.0
82.35	1755.0
82.36	1780.0
82.37	1748.0
82.38	1760.0
82.39	1760.0
82.4	1761.0
82.41	1744.0
82.42	1794.0
82.43	1782.0
82.44	1796.0
82.45	1800.0
82.46	1797.0
82.47	1776.0
82.48	1749.0
82.49	1761.0
82.5	1802.0
82.51	1824.0
82.52	1809.0
82.53	1768.0
82.54	1780.0
82.55	1780.0
82.56	1769.0
82.57	1756.0
82.58	1717.0
82.59	1804.0
82.6	1759.0
82.61	1763.0
82.62	1771.0
82.63	1778.0
82.64	1821.0
82.65	1789.0
82.66	1784.0
82.67	1734.0
82.68	1742.0
82.69	1787.0
82.7	1784.0
82.71	1759.0
82.72	1738.0
82.73	1769.0
82.74	1795.0
82.75	1801.0
82.76	1779.0
82.77	1781.0
82.78	1779.0
82.79	1800.0
82.8	1830.0
82.81	1785.0
82.82	1783.0
82.83	1804.0
82.84	1807.0
82.85	1785.0
82.86	1797.0
82.87	1792.0
82.88	1814.0
82.89	1833.0
82.9	1776.0
82.91	1738.0
82.92	1763.0
82.93	1777.0
82.94	1789.0
82.95	1818.0
82.96	1790.0
82.97	1802.0
82.98	1835.0
82.99	1795.0
83.0	1738.0
83.01	1769.0
83.02	1814.0
83.03	1813.0
83.04	1764.0
83.05	1775.0
83.06	1772.0
83.07	1782.0
83.08	1787.0
83.09	1770.0
83.1	1758.0
83.11	1764.0
83.12	1801.0
83.13	1796.0
83.14	1797.0
83.15	1801.0
83.16	1820.0
83.17	1801.0
83.18	1797.0
83.19	1833.0
83.2	1804.0
83.21	1825.0
83.22	1791.0
83.23	1742.0
83.24	1736.0
83.25	1789.0
83.26	1811.0
83.27	1807.0
83.28	1852.0
83.29	1822.0
83.3	1788.0
83.31	1836.0
83.32	1799.0
83.33	1800.0
83.34	1816.0
83.35	1783.0
83.36	1808.0
83.37	1855.0
83.38	1867.0
83.39	1834.0
83.4	1856.0
83.41	1820.0
83.42	1783.0
83.43	1813.0
83.44	1803.0
83.45	1801.0
83.46	1761.0
83.47	1790.0
83.48	1788.0
83.49	1744.0
83.5	1762.0
83.51	1768.0
83.52	1774.0
83.53	1789.0
83.54	1777.0
83.55	1747.0
83.56	1723.0
83.57	1762.0
83.58	1797.0
83.59	1803.0
83.6	1793.0
83.61	1702.0
83.62	1721.0
83.63	1769.0
83.64	1774.0
83.65	1781.0
83.66	1759.0
83.67	1741.0
83.68	1718.0
83.69	1706.0
83.7	1758.0
83.71	1812.0
83.72	1818.0
83.73	1795.0
83.74	1778.0
83.75	1769.0
83.76	1741.0
83.77	1775.0
83.78	1782.0
83.79	1780.0
83.8	1772.0
83.81	1783.0
83.82	1737.0
83.83	1699.0
83.84	1772.0
83.85	1779.0
83.86	1742.0
83.87	1771.0
83.88	1740.0
83.89	1740.0
83.9	1763.0
83.91	1776.0
83.92	1767.0
83.93	1716.0
83.94	1754.0
83.95	1794.0
83.96	1766.0
83.97	1792.0
83.98	1836.0
83.99	1783.0
84.0	1755.0
84.01	1749.0
84.02	1743.0
84.03	1743.0
84.04	1742.0
84.05	1762.0
84.06	1758.0
84.07	1739.0
84.08	1757.0
84.09	1717.0
84.1	1715.0
84.11	1734.0
84.12	1755.0
84.13	1771.0
84.14	1732.0
84.15	1739.0
84.16	1743.0
84.17	1745.0
84.18	1776.0
84.19	1761.0
84.2	1758.0
84.21	1783.0
84.22	1753.0
84.23	1744.0
84.24	1764.0
84.25	1791.0
84.26	1773.0
84.27	1791.0
84.28	1770.0
84.29	1770.0
84.3	1773.0
84.31	1770.0
84.32	1808.0
84.33	1746.0
84.34	1699.0
84.35	1741.0
84.36	1751.0
84.37	1720.0
84.38	1744.0
84.39	1810.0
84.4	1821.0
84.41	1744.0
84.42	1701.0
84.43	1675.0
84.44	1701.0
84.45	1714.0
84.46	1737.0
84.47	1758.0
84.48	1786.0
84.49	1795.0
84.5	1709.0
84.51	1705.0
84.52	1761.0
84.53	1773.0
84.54	1790.0
84.55	1754.0
84.56	1720.0
84.57	1757.0
84.58	1774.0
84.59	1783.0
84.6	1770.0
84.61	1732.0
84.62	1769.0
84.63	1758.0
84.64	1762.0
84.65	1791.0
84.66	1793.0
84.67	1809.0
84.68	1749.0
84.69	1739.0
84.7	1780.0
84.71	1791.0
84.72	1755.0
84.73	1751.0
84.74	1706.0
84.75	1750.0
84.76	1753.0
84.77	1773.0
84.78	1750.0
84.79	1764.0
84.8	1778.0
84.81	1709.0
84.82	1704.0
84.83	1759.0
84.84	1799.0
84.85	1754.0
84.86	1760.0
84.87	1796.0
84.88	1773.0
84.89	1773.0
84.9	1786.0
84.91	1737.0
84.92	1750.0
84.93	1761.0
84.94	1746.0
84.95	1774.0
84.96	1807.0
84.97	1810.0
84.98	1769.0
84.99	1772.0
85.0	1765.0
85.01	1764.0
85.02	1783.0
85.03	1772.0
85.04	1752.0
85.05	1734.0
85.06	1745.0
85.07	1744.0
85.08	1760.0
85.09	1762.0
85.1	1758.0
85.11	1777.0
85.12	1752.0
85.13	1715.0
85.14	1713.0
85.15	1719.0
85.16	1730.0
85.17	1765.0
85.18	1796.0
85.19	1780.0
85.2	1741.0
85.21	1763.0
85.22	1754.0
85.23	1755.0
85.24	1758.0
85.25	1740.0
85.26	1730.0
85.27	1765.0
85.28	1801.0
85.29	1765.0
85.3	1734.0
85.31	1719.0
85.32	1794.0
85.33	1847.0
85.34	1774.0
85.35	1812.0
85.36	1768.0
85.37	1756.0
85.38	1774.0
85.39	1782.0
85.4	1781.0
85.41	1774.0
85.42	1811.0
85.43	1792.0
85.44	1772.0
85.45	1774.0
85.46	1779.0
85.47	1786.0
85.48	1779.0
85.49	1783.0
85.5	1786.0
85.51	1782.0
85.52	1795.0
85.53	1790.0
85.54	1800.0
85.55	1776.0
85.56	1805.0
85.57	1818.0
85.58	1819.0
85.59	1795.0
85.6	1809.0
85.61	1846.0
85.62	1846.0
85.63	1860.0
85.64	1844.0
85.65	1843.0
85.66	1825.0
85.67	1830.0
85.68	1784.0
85.69	1755.0
85.7	1777.0
85.71	1801.0
85.72	1781.0
85.73	1779.0
85.74	1768.0
85.75	1811.0
85.76	1808.0
85.77	1777.0
85.78	1789.0
85.79	1786.0
85.8	1772.0
85.81	1814.0
85.82	1822.0
85.83	1882.0
85.84	1899.0
85.85	1821.0
85.86	1773.0
85.87	1779.0
85.88	1799.0
85.89	1833.0
85.9	1832.0
85.91	1787.0
85.92	1787.0
85.93	1847.0
85.94	1831.0
85.95	1835.0
85.96	1860.0
85.97	1844.0
85.98	1835.0
85.99	1857.0
86.0	1843.0
86.01	1863.0
86.02	1835.0
86.03	1837.0
86.04	1838.0
86.05	1854.0
86.06	1883.0
86.07	1877.0
86.08	1896.0
86.09	1888.0
86.1	1874.0
86.11	1853.0
86.12	1839.0
86.13	1851.0
86.14	1880.0
86.15	1903.0
86.16	1904.0
86.17	1901.0
86.18	1853.0
86.19	1861.0
86.2	1905.0
86.21	1913.0
86.22	1956.0
86.23	1922.0
86.24	1918.0
86.25	1885.0
86.26	1880.0
86.27	1854.0
86.28	1883.0
86.29	1900.0
86.3	1903.0
86.31	1916.0
86.32	1907.0
86.33	1889.0
86.34	1880.0
86.35	1855.0
86.36	1877.0
86.37	1886.0
86.38	1912.0
86.39	1918.0
86.4	1897.0
86.41	1904.0
86.42	1937.0
86.43	1944.0
86.44	1959.0
86.45	1938.0
86.46	1927.0
86.47	1901.0
86.48	1892.0
86.49	1903.0
86.5	1905.0
86.51	1940.0
86.52	1934.0
86.53	1936.0
86.54	1927.0
86.55	1931.0
86.56	1936.0
86.57	1937.0
86.58	1954.0
86.59	1951.0
86.6	1946.0
86.61	1910.0
86.62	1954.0
86.63	1976.0
86.64	1976.0
86.65	1958.0
86.66	1937.0
86.67	1960.0
86.68	1968.0
86.69	1935.0
86.7	1939.0
86.71	1943.0
86.72	1946.0
86.73	1964.0
86.74	1962.0
86.75	1943.0
86.76	1877.0
86.77	1885.0
86.78	1916.0
86.79	1930.0
86.8	1925.0
86.81	1892.0
86.82	1922.0
86.83	1960.0
86.84	1889.0
86.85	1891.0
86.86	1905.0
86.87	1903.0
86.88	1878.0
86.89	1898.0
86.9	1916.0
86.91	1892.0
86.92	1863.0
86.93	1877.0
86.94	1908.0
86.95	1910.0
86.96	1898.0
86.97	1870.0
86.98	1880.0
86.99	1882.0
87.0	1869.0
87.01	1858.0
87.02	1909.0
87.03	1924.0
87.04	1886.0
87.05	1888.0
87.06	1901.0
87.07	1872.0
87.08	1887.0
87.09	1879.0
87.1	1872.0
87.11	1916.0
87.12	1896.0
87.13	1902.0
87.14	1907.0
87.15	1909.0
87.16	1861.0
87.17	1860.0
87.18	1872.0
87.19	1879.0
87.2	1875.0
87.21	1855.0
87.22	1859.0
87.23	1828.0
87.24	1872.0
87.25	1831.0
87.26	1836.0
87.27	1887.0
87.28	1939.0
87.29	1900.0
87.3	1831.0
87.31	1813.0
87.32	1872.0
87.33	1880.0
87.34	1873.0
87.35	1851.0
87.36	1867.0
87.37	1832.0
87.38	1825.0
87.39	1873.0
87.4	1906.0
87.41	1909.0
87.42	1896.0
87.43	1856.0
87.44	1840.0
87.45	1833.0
87.46	1824.0
87.47	1823.0
87.48	1864.0
87.49	1871.0
87.5	1843.0
87.51	1839.0
87.52	1871.0
87.53	1849.0
87.54	1844.0
87.55	1821.0
87.56	1824.0
87.57	1809.0
87.58	1817.0
87.59	1849.0
87.6	1815.0
87.61	1810.0
87.62	1822.0
87.63	1832.0
87.64	1859.0
87.65	1832.0
87.66	1780.0
87.67	1796.0
87.68	1843.0
87.69	1786.0
87.7	1787.0
87.71	1811.0
87.72	1814.0
87.73	1835.0
87.74	1862.0
87.75	1893.0
87.76	1844.0
87.77	1808.0
87.78	1815.0
87.79	1814.0
87.8	1816.0
87.81	1802.0
87.82	1795.0
87.83	1824.0
87.84	1810.0
87.85	1797.0
87.86	1846.0
87.87	1834.0
87.88	1801.0
87.89	1798.0
87.9	1830.0
87.91	1840.0
87.92	1811.0
87.93	1799.0
87.94	1807.0
87.95	1812.0
87.96	1812.0
87.97	1779.0
87.98	1807.0
87.99	1819.0
88.0	1823.0
88.01	1800.0
88.02	1772.0
88.03	1804.0
88.04	1839.0
88.05	1824.0
88.06	1777.0
88.07	1797.0
88.08	1815.0
88.09	1824.0
88.1	1819.0
88.11	1800.0
88.12	1753.0
88.13	1777.0
88.14	1832.0
88.15	1859.0
88.16	1842.0
88.17	1825.0
88.18	1838.0
88.19	1807.0
88.2	1774.0
88.21	1797.0
88.22	1828.0
88.23	1835.0
88.24	1850.0
88.25	1800.0
88.26	1782.0
88.27	1818.0
88.28	1809.0
88.29	1779.0
88.3	1780.0
88.31	1781.0
88.32	1812.0
88.33	1775.0
88.34	1783.0
88.35	1842.0
88.36	1860.0
88.37	1812.0
88.38	1771.0
88.39	1791.0
88.4	1796.0
88.41	1816.0
88.42	1834.0
88.43	1838.0
88.44	1802.0
88.45	1807.0
88.46	1847.0
88.47	1810.0
88.48	1806.0
88.49	1818.0
88.5	1799.0
88.51	1879.0
88.52	1877.0
88.53	1835.0
88.54	1783.0
88.55	1778.0
88.56	1808.0
88.57	1806.0
88.58	1791.0
88.59	1765.0
88.6	1792.0
88.61	1808.0
88.62	1813.0
88.63	1792.0
88.64	1799.0
88.65	1813.0
88.66	1790.0
88.67	1790.0
88.68	1850.0
88.69	1855.0
88.7	1835.0
88.71	1792.0
88.72	1818.0
88.73	1836.0
88.74	1779.0
88.75	1812.0
88.76	1830.0
88.77	1815.0
88.78	1774.0
88.79	1764.0
88.8	1792.0
88.81	1790.0
88.82	1782.0
88.83	1794.0
88.84	1795.0
88.85	1783.0
88.86	1823.0
88.87	1819.0
88.88	1818.0
88.89	1801.0
88.9	1799.0
88.91	1793.0
88.92	1806.0
88.93	1819.0
88.94	1815.0
88.95	1839.0
88.96	1834.0
88.97	1805.0
88.98	1825.0
88.99	1821.0
89.0	1781.0
89.01	1779.0
89.02	1762.0
89.03	1800.0
89.04	1808.0
89.05	1799.0
89.06	1767.0
89.07	1770.0
89.08	1821.0
89.09	1815.0
89.1	1791.0
89.11	1786.0
89.12	1771.0
89.13	1786.0
89.14	1799.0
89.15	1766.0
89.16	1782.0
89.17	1784.0
89.18	1774.0
89.19	1755.0
89.2	1750.0
89.21	1772.0
89.22	1768.0
89.23	1790.0
89.24	1800.0
89.25	1810.0
89.26	1832.0
89.27	1802.0
89.28	1760.0
89.29	1758.0
89.3	1789.0
89.31	1822.0
89.32	1816.0
89.33	1794.0
89.34	1785.0
89.35	1805.0
89.36	1827.0
89.37	1825.0
89.38	1833.0
89.39	1816.0
89.4	1822.0
89.41	1850.0
89.42	1836.0
89.43	1797.0
89.44	1749.0
89.45	1740.0
89.46	1779.0
89.47	1779.0
89.48	1776.0
89.49	1808.0
89.5	1797.0
89.51	1753.0
89.52	1767.0
89.53	1785.0
89.54	1805.0
89.55	1838.0
89.56	1826.0
89.57	1787.0
89.58	1771.0
89.59	1795.0
89.6	1761.0
89.61	1747.0
89.62	1792.0
89.63	1789.0
89.64	1779.0
89.65	1784.0
89.66	1807.0
89.67	1808.0
89.68	1789.0
89.69	1790.0
89.7	1791.0
89.71	1788.0
89.72	1794.0
89.73	1779.0
89.74	1746.0
89.75	1750.0
89.76	1797.0
89.77	1821.0
89.78	1777.0
89.79	1791.0
89.8	1809.0
89.81	1784.0
89.82	1773.0
89.83	1757.0
89.84	1763.0
89.85	1743.0
89.86	1721.0
89.87	1738.0
89.88	1768.0
89.89	1765.0
89.9	1735.0
89.91	1734.0
89.92	1772.0
89.93	1783.0
89.94	1786.0
89.95	1799.0
89.96	1796.0
89.97	1789.0
89.98	1780.0
89.99	1804.0
90.0	1783.0
90.01	1780.0
90.02	1775.0
90.03	1753.0
90.04	1771.0
90.05	1756.0
90.06	1766.0
90.07	1782.0
90.08	1782.0
90.09	1806.0
90.1	1811.0
90.11	1802.0
90.12	1788.0
90.13	1758.0
90.14	1756.0
90.15	1780.0
90.16	1778.0
90.17	1796.0
90.18	1790.0
90.19	1736.0
90.2	1728.0
90.21	1753.0
90.22	1740.0
90.23	1762.0
90.24	1800.0
90.25	1787.0
90.26	1772.0
90.27	1793.0
90.28	1821.0
90.29	1810.0
90.3	1788.0
90.31	1800.0
90.32	1814.0
90.33	1767.0
90.34	1742.0
90.35	1775.0
90.36	1777.0
90.37	1776.0
90.38	1773.0
90.39	1746.0
90.4	1741.0
90.41	1745.0
90.42	1737.0
90.43	1742.0
90.44	1736.0
90.45	1751.0
90.46	1783.0
90.47	1783.0
90.48	1762.0
90.49	1770.0
90.5	1805.0
90.51	1813.0
90.52	1789.0
90.53	1783.0
90.54	1792.0
90.55	1782.0
90.56	1766.0
90.57	1757.0
90.58	1755.0
90.59	1760.0
90.6	1754.0
90.61	1769.0
90.62	1809.0
90.63	1821.0
90.64	1783.0
90.65	1766.0
90.66	1745.0
90.67	1717.0
90.68	1720.0
90.69	1727.0
90.7	1761.0
90.71	1794.0
90.72	1785.0
90.73	1761.0
90.74	1758.0
90.75	1775.0
90.76	1785.0
90.77	1784.0
90.78	1781.0
90.79	1783.0
90.8	1779.0
90.81	1784.0
90.82	1780.0
90.83	1767.0
90.84	1750.0
90.85	1755.0
90.86	1770.0
90.87	1774.0
90.88	1781.0
90.89	1780.0
90.9	1767.0
90.91	1765.0
90.92	1743.0
90.93	1711.0
90.94	1760.0
90.95	1781.0
90.96	1722.0
90.97	1725.0
90.98	1750.0
90.99	1721.0
91.0	1710.0
91.01	1740.0
91.02	1774.0
91.03	1785.0
91.04	1783.0
91.05	1786.0
91.06	1780.0
91.07	1762.0
91.08	1776.0
91.09	1802.0
91.1	1802.0
91.11	1771.0
91.12	1757.0
91.13	1776.0
91.14	1776.0
91.15	1757.0
91.16	1725.0
91.17	1723.0
91.18	1766.0
91.19	1783.0
91.2	1782.0
91.21	1805.0
91.22	1786.0
91.23	1771.0
91.24	1769.0
91.25	1779.0
91.26	1804.0
91.27	1812.0
91.28	1800.0
91.29	1760.0
91.3	1743.0
91.31	1773.0
91.32	1743.0
91.33	1744.0
91.34	1794.0
91.35	1765.0
91.36	1735.0
91.37	1765.0
91.38	1789.0
91.39	1761.0
91.4	1744.0
91.41	1770.0
91.42	1795.0
91.43	1776.0
91.44	1752.0
91.45	1751.0
91.46	1748.0
91.47	1745.0
91.48	1740.0
91.49	1754.0
91.5	1772.0
91.51	1740.0
91.52	1729.0
91.53	1740.0
91.54	1749.0
91.55	1774.0
91.56	1774.0
91.57	1760.0
91.58	1777.0
91.59	1809.0
91.6	1820.0
91.61	1803.0
91.62	1768.0
91.63	1771.0
91.64	1768.0
91.65	1748.0
91.66	1759.0
91.67	1777.0
91.68	1820.0
91.69	1834.0
91.7	1800.0
91.71	1797.0
91.72	1820.0
91.73	1795.0
91.74	1790.0
91.75	1800.0
91.76	1799.0
91.77	1824.0
91.78	1821.0
91.79	1807.0
91.8	1811.0
91.81	1802.0
91.82	1786.0
91.83	1764.0
91.84	1747.0
91.85	1732.0
91.86	1735.0
91.87	1750.0
91.88	1752.0
91.89	1767.0
91.9	1783.0
91.91	1781.0
91.92	1789.0
91.93	1793.0
91.94	1789.0
91.95	1772.0
91.96	1735.0
91.97	1747.0
91.98	1745.0
91.99	1716.0
92.0	1747.0
92.01	1770.0
92.02	1743.0
92.03	1736.0
92.04	1733.0
92.05	1741.0
92.06	1749.0
92.07	1724.0
92.08	1738.0
92.09	1781.0
92.1	1776.0
92.11	1779.0
92.12	1753.0
92.13	1730.0
92.14	1772.0
92.15	1790.0
92.16	1773.0
92.17	1778.0
92.18	1797.0
92.19	1781.0
92.2	1760.0
92.21	1730.0
92.22	1761.0
92.23	1783.0
92.24	1783.0
92.25	1794.0
92.26	1790.0
92.27	1808.0
92.28	1791.0
92.29	1765.0
92.3	1777.0
92.31	1787.0
92.32	1800.0
92.33	1793.0
92.34	1766.0
92.35	1781.0
92.36	1809.0
92.37	1754.0
92.38	1761.0
92.39	1786.0
92.4	1741.0
92.41	1756.0
92.42	1814.0
92.43	1830.0
92.44	1822.0
92.45	1816.0
92.46	1798.0
92.47	1795.0
92.48	1806.0
92.49	1804.0
92.5	1785.0
92.51	1806.0
92.52	1815.0
92.53	1794.0
92.54	1797.0
92.55	1768.0
92.56	1749.0
92.57	1791.0
92.58	1820.0
92.59	1816.0
92.6	1773.0
92.61	1777.0
92.62	1825.0
92.63	1828.0
92.64	1791.0
92.65	1815.0
92.66	1831.0
92.67	1825.0
92.68	1828.0
92.69	1840.0
92.7	1842.0
92.71	1820.0
92.72	1830.0
92.73	1855.0
92.74	1819.0
92.75	1786.0
92.76	1811.0
92.77	1812.0
92.78	1812.0
92.79	1831.0
92.8	1859.0
92.81	1861.0
92.82	1855.0
92.83	1862.0
92.84	1842.0
92.85	1817.0
92.86	1783.0
92.87	1795.0
92.88	1828.0
92.89	1792.0
92.9	1789.0
92.91	1824.0
92.92	1790.0
92.93	1827.0
92.94	1876.0
92.95	1849.0
92.96	1858.0
92.97	1858.0
92.98	1816.0
92.99	1797.0
93.0	1846.0
93.01	1878.0
93.02	1870.0
93.03	1877.0
93.04	1875.0
93.05	1877.0
93.06	1869.0
93.07	1881.0
93.08	1907.0
93.09	1918.0
93.1	1899.0
93.11	1861.0
93.12	1849.0
93.13	1885.0
93.14	1874.0
93.15	1880.0
93.16	1886.0
93.17	1862.0
93.18	1859.0
93.19	1885.0
93.2	1902.0
93.21	1903.0
93.22	1859.0
93.23	1802.0
93.24	1829.0
93.25	1880.0
93.26	1894.0
93.27	1880.0
93.28	1881.0
93.29	1911.0
93.3	1924.0
93.31	1945.0
93.32	1928.0
93.33	1864.0
93.34	1866.0
93.35	1920.0
93.36	1973.0
93.37	1963.0
93.38	1941.0
93.39	1946.0
93.4	1943.0
93.41	1906.0
93.42	1874.0
93.43	1890.0
93.44	1931.0
93.45	1968.0
93.46	1967.0
93.47	1943.0
93.48	1925.0
93.49	1902.0
93.5	1908.0
93.51	1943.0
93.52	1981.0
93.53	1997.0
93.54	1976.0
93.55	1977.0
93.56	2010.0
93.57	2011.0
93.58	1963.0
93.59	1910.0
93.6	1935.0
93.61	1966.0
93.62	1994.0
93.63	2010.0
93.64	2025.0
93.65	2048.0
93.66	2055.0
93.67	1983.0
93.68	1999.0
93.69	2041.0
93.7	2046.0
93.71	2031.0
93.72	2012.0
93.73	1986.0
93.74	1957.0
93.75	1980.0
93.76	2016.0
93.77	1992.0
93.78	1972.0
93.79	1985.0
93.8	2013.0
93.81	2025.0
93.82	2014.0
93.83	1994.0
93.84	2013.0
93.85	2012.0
93.86	1999.0
93.87	2026.0
93.88	2016.0
93.89	1996.0
93.9	1968.0
93.91	1962.0
93.92	2031.0
93.93	2009.0
93.94	1974.0
93.95	1953.0
93.96	1944.0
93.97	1952.0
93.98	1953.0
93.99	1958.0
94.0	1963.0
94.01	1962.0
94.02	1986.0
94.03	1990.0
94.04	2000.0
94.05	1999.0
94.06	1976.0
94.07	1965.0
94.08	1940.0
94.09	1973.0
94.1	2041.0
94.11	2009.0
94.12	1956.0
94.13	1913.0
94.14	1933.0
94.15	1967.0
94.16	1963.0
94.17	1923.0
94.18	1932.0
94.19	1966.0
94.2	1951.0
94.21	1959.0
94.22	1949.0
94.23	1924.0
94.24	1977.0
94.25	1971.0
94.26	1894.0
94.27	1918.0
94.28	1974.0
94.29	1932.0
94.3	1928.0
94.31	1891.0
94.32	1879.0
94.33	1886.0
94.34	1911.0
94.35	1915.0
94.36	1901.0
94.37	1862.0
94.38	1889.0
94.39	1923.0
94.4	1918.0
94.41	1939.0
94.42	1905.0
94.43	1860.0
94.44	1858.0
94.45	1883.0
94.46	1902.0
94.47	1900.0
94.48	1895.0
94.49	1866.0
94.5	1856.0
94.51	1898.0
94.52	1863.0
94.53	1829.0
94.54	1825.0
94.55	1847.0
94.56	1884.0
94.57	1879.0
94.58	1848.0
94.59	1873.0
94.6	1883.0
94.61	1885.0
94.62	1892.0
94.63	1877.0
94.64	1861.0
94.65	1842.0
94.66	1802.0
94.67	1830.0
94.68	1868.0
94.69	1851.0
94.7	1862.0
94.71	1864.0
94.72	1843.0
94.73	1859.0
94.74	1860.0
94.75	1827.0
94.76	1830.0
94.77	1844.0
94.78	1829.0
94.79	1814.0
94.8	1803.0
94.81	1803.0
94.82	1789.0
94.83	1792.0
94.84	1788.0
94.85	1798.0
94.86	1827.0
94.87	1832.0
94.88	1812.0
94.89	1834.0
94.9	1820.0
94.91	1818.0
94.92	1777.0
94.93	1776.0
94.94	1803.0
94.95	1847.0
94.96	1828.0
94.97	1842.0
94.98	1841.0
94.99	1816.0
95.0	1806.0
95.01	1819.0
95.02	1830.0
95.03	1817.0
95.04	1790.0
95.05	1834.0
95.06	1833.0
95.07	1799.0
95.08	1848.0
95.09	1855.0
95.1	1823.0
95.11	1819.0
95.12	1841.0
95.13	1879.0
95.14	1866.0
95.15	1828.0
95.16	1804.0
95.17	1829.0
95.18	1820.0
95.19	1812.0
95.2	1819.0
95.21	1802.0
95.22	1827.0
95.23	1835.0
95.24	1837.0
95.25	1820.0
95.26	1813.0
95.27	1874.0
95.28	1882.0
95.29	1862.0
95.3	1797.0
95.31	1768.0
95.32	1826.0
95.33	1816.0
95.34	1761.0
95.35	1755.0
95.36	1772.0
95.37	1825.0
95.38	1856.0
95.39	1852.0
95.4	1818.0
95.41	1847.0
95.42	1857.0
95.43	1826.0
95.44	1806.0
95.45	1821.0
95.46	1842.0
95.47	1823.0
95.48	1846.0
95.49	1855.0
95.5	1856.0
95.51	1867.0
95.52	1889.0
95.53	1839.0
95.54	1811.0
95.55	1795.0
95.56	1825.0
95.57	1854.0
95.58	1847.0
95.59	1835.0
95.6	1865.0
95.61	1903.0
95.62	1872.0
95.63	1861.0
95.64	1887.0
95.65	1904.0
95.66	1857.0
95.67	1849.0
95.68	1873.0
95.69	1887.0
95.7	1887.0
95.71	1862.0
95.72	1889.0
95.73	1875.0
95.74	1873.0
95.75	1864.0
95.76	1889.0
95.77	1890.0
95.78	1857.0
95.79	1856.0
95.8	1857.0
95.81	1910.0
95.82	1902.0
95.83	1883.0
95.84	1883.0
95.85	1859.0
95.86	1820.0
95.87	1821.0
95.88	1870.0
95.89	1877.0
95.9	1917.0
95.91	1921.0
95.92	1887.0
95.93	1894.0
95.94	1908.0
95.95	1928.0
95.96	1925.0
95.97	1905.0
95.98	1901.0
95.99	1888.0
96.0	1879.0
96.01	1859.0
96.02	1868.0
96.03	1901.0
96.04	1888.0
96.05	1840.0
96.06	1866.0
96.07	1846.0
96.08	1865.0
96.09	1897.0
96.1	1882.0
96.11	1894.0
96.12	1911.0
96.13	1885.0
96.14	1857.0
96.15	1822.0
96.16	1869.0
96.17	1888.0
96.18	1851.0
96.19	1855.0
96.2	1859.0
96.21	1857.0
96.22	1814.0
96.23	1819.0
96.24	1835.0
96.25	1845.0
96.26	1897.0
96.27	1918.0
96.28	1923.0
96.29	1885.0
96.3	1895.0
96.31	1930.0
96.32	1883.0
96.33	1881.0
96.34	1865.0
96.35	1870.0
96.36	1866.0
96.37	1861.0
96.38	1869.0
96.39	1858.0
96.4	1813.0
96.41	1802.0
96.42	1807.0
96.43	1796.0
96.44	1837.0
96.45	1863.0
96.46	1855.0
96.47	1851.0
96.48	1858.0
96.49	1824.0
96.5	1807.0
96.51	1831.0
96.52	1865.0
96.53	1858.0
96.54	1854.0
96.55	1861.0
96.56	1839.0
96.57	1825.0
96.58	1811.0
96.59	1799.0
96.6	1817.0
96.61	1786.0
96.62	1767.0
96.63	1768.0
96.64	1843.0
96.65	1879.0
96.66	1838.0
96.67	1842.0
96.68	1820.0
96.69	1779.0
96.7	1778.0
96.71	1817.0
96.72	1830.0
96.73	1776.0
96.74	1784.0
96.75	1784.0
96.76	1790.0
96.77	1787.0
96.78	1787.0
96.79	1763.0
96.8	1804.0
96.81	1776.0
96.82	1734.0
96.83	1769.0
96.84	1810.0
96.85	1807.0
96.86	1746.0
96.87	1766.0
96.88	1762.0
96.89	1774.0
96.9	1790.0
96.91	1846.0
96.92	1846.0
96.93	1780.0
96.94	1753.0
96.95	1732.0
96.96	1754.0
96.97	1774.0
96.98	1752.0
96.99	1825.0
97.0	1791.0
97.01	1754.0
97.02	1723.0
97.03	1762.0
97.04	1804.0
97.05	1802.0
97.06	1826.0
97.07	1754.0
97.08	1801.0
97.09	1783.0
97.1	1761.0
97.11	1756.0
97.12	1783.0
97.13	1795.0
97.14	1765.0
97.15	1741.0
97.16	1768.0
97.17	1802.0
97.18	1791.0
97.19	1761.0
97.2	1766.0
97.21	1770.0
97.22	1822.0
97.23	1789.0
97.24	1738.0
97.25	1716.0
97.26	1720.0
97.27	1734.0
97.28	1768.0
97.29	1784.0
97.3	1780.0
97.31	1733.0
97.32	1720.0
97.33	1769.0
97.34	1802.0
97.35	1820.0
97.36	1801.0
97.37	1779.0
97.38	1802.0
97.39	1746.0
97.4	1751.0
97.41	1781.0
97.42	1768.0
97.43	1782.0
97.44	1770.0
97.45	1740.0
97.46	1788.0
97.47	1743.0
97.48	1740.0
97.49	1763.0
97.5	1757.0
97.51	1722.0
97.52	1781.0
97.53	1770.0
97.54	1725.0
97.55	1752.0
97.56	1814.0
97.57	1755.0
97.58	1710.0
97.59	1719.0
97.6	1752.0
97.61	1764.0
97.62	1776.0
97.63	1749.0
97.64	1707.0
97.65	1697.0
97.66	1782.0
97.67	1834.0
97.68	1795.0
97.69	1775.0
97.7	1808.0
97.71	1809.0
97.72	1764.0
97.73	1733.0
97.74	1754.0
97.75	1803.0
97.76	1789.0
97.77	1761.0
97.78	1781.0
97.79	1766.0
97.8	1734.0
97.81	1727.0
97.82	1787.0
97.83	1800.0
97.84	1764.0
97.85	1817.0
97.86	1788.0
97.87	1810.0
97.88	1814.0
97.89	1817.0
97.9	1795.0
97.91	1814.0
97.92	1725.0
97.93	1682.0
97.94	1730.0
97.95	1790.0
97.96	1830.0
97.97	1821.0
97.98	1787.0
97.99	1744.0
98.0	1725.0
98.01	1742.0
98.02	1793.0
98.03	1786.0
98.04	1735.0
98.05	1758.0
98.06	1797.0
98.07	1755.0
98.08	1777.0
98.09	1818.0
98.1	1800.0
98.11	1749.0
98.12	1763.0
98.13	1797.0
98.14	1746.0
98.15	1744.0
98.16	1827.0
98.17	1824.0
98.18	1808.0
98.19	1794.0
98.2	1779.0
98.21	1778.0
98.22	1798.0
98.23	1816.0
98.24	1760.0
98.25	1724.0
98.26	1783.0
98.27	1781.0
98.28	1731.0
98.29	1781.0
98.3	1759.0
98.31	1789.0
98.32	1788.0
98.33	1824.0
98.34	1813.0
98.35	1762.0
98.36	1813.0
98.37	1807.0
98.38	1805.0
98.39	1809.0
98.4	1820.0
98.41	1809.0
98.42	1810.0
98.43	1819.0
98.44	1798.0
98.45	1797.0
98.46	1803.0
98.47	1756.0
98.48	1758.0
98.49	1738.0
98.5	1774.0
98.51	1806.0
98.52	1825.0
98.53	1821.0
98.54	1767.0
98.55	1799.0
98.56	1778.0
98.57	1823.0
98.58	1828.0
98.59	1753.0
98.6	1780.0
98.61	1793.0
98.62	1748.0
98.63	1728.0
98.64	1764.0
98.65	1853.0
98.66	1841.0
98.67	1768.0
98.68	1742.0
98.69	1806.0
98.7	1833.0
98.71	1807.0
98.72	1817.0
98.73	1785.0
98.74	1764.0
98.75	1746.0
98.76	1787.0
98.77	1789.0
98.78	1801.0
98.79	1839.0
98.8	1821.0
98.81	1807.0
98.82	1825.0
98.83	1814.0
98.84	1797.0
98.85	1799.0
98.86	1787.0
98.87	1821.0
98.88	1846.0
98.89	1815.0
98.9	1830.0
98.91	1828.0
98.92	1810.0
98.93	1810.0
98.94	1805.0
98.95	1805.0
98.96	1852.0
98.97	1850.0
98.98	1803.0
98.99	1741.0
99.0	1791.0
99.01	1801.0
99.02	1791.0
99.03	1854.0
99.04	1866.0
99.05	1837.0
99.06	1806.0
99.07	1819.0
99.08	1876.0
99.09	1830.0
99.1	1792.0
99.11	1850.0
99.12	1879.0
99.13	1807.0
99.14	1834.0
99.15	1824.0
99.16	1831.0
99.17	1815.0
99.18	1846.0
99.19	1813.0
99.2	1810.0
99.21	1807.0
99.22	1833.0
99.23	1800.0
99.24	1789.0
99.25	1838.0
99.26	1817.0
99.27	1816.0
99.28	1818.0
99.29	1813.0
99.3	1829.0
99.31	1893.0
99.32	1844.0
99.33	1805.0
99.34	1739.0
99.35	1825.0
99.36	1862.0
99.37	1810.0
99.38	1801.0
99.39	1850.0
99.4	1851.0
99.41	1843.0
99.42	1834.0
99.43	1851.0
99.44	1868.0
99.45	1849.0
99.46	1809.0
99.47	1824.0
99.48	1866.0
99.49	1883.0
99.5	1860.0
99.51	1891.0
99.52	1876.0
99.53	1829.0
99.54	1837.0
99.55	1860.0
99.56	1832.0
99.57	1852.0
99.58	1846.0
99.59	1854.0
99.6	1844.0
99.61	1865.0
99.62	1860.0
99.63	1866.0
99.64	1878.0
99.65	1824.0
99.66	1833.0
99.67	1851.0
99.68	1861.0
99.69	1860.0
99.7	1886.0
99.71	1868.0
99.72	1889.0
99.73	1876.0
99.74	1841.0
99.75	1875.0
99.76	1861.0
99.77	1818.0
99.78	1860.0
99.79	1857.0
99.8	1846.0
99.81	1868.0
99.82	1845.0
99.83	1900.0
99.84	1901.0
99.85	1872.0
99.86	1862.0
99.87	1894.0
99.88	1919.0
99.89	1933.0
99.9	1925.0
99.91	1937.0
99.92	1912.0
99.93	1916.0
99.94	1906.0
99.95	1919.0
99.96	1887.0
99.97	1866.0
99.98	1930.0
99.99	1937.0
100.0	1929.0
